BNO080data:system time,channal,collection time,accelerometer X,accelerometer Y,accelerometer Z,gyro X,gyro Y,gyro Z,magnetometer X,magnetometer Y,magnetometer Z,AccuracyLevel,QuatI,QuatJ,QuatK,QuatReal
BNO055data:SystemTime,Channal,Collectiontime,AccelerometerX,AccelerometerY,AccelerometerZ,GyroX,GyroY,GyroZ,MagnetometerX,MagnetometerY,MagnetometerZ,EulerX,EulerY,EulerZ,LineAraccelX,LineAraccelY,LineAraccelZ,GravityX,GravityY,GravityZ,QuaternionW,QuaternionX,QuaternionY,QuaternionZ,OrientationX,OrientationY,OrientationZ)
20190207151422992,2,1362270,-7.90,-3.56,4.43,-0.02,-0.00,-0.01,5.38,57.31,11.56,Medium,-0.26,0.47,0.07,0.84,
20190207151422023,3,1362308,-2.04,8.25,-4.94,0.02,0.21,-0.09,12.38,-44.69,-25.06,Medium,0.78,0.31,0.14,0.52,
20190207151422057,4,1362340,-8.96,-1.80,2.91,0.00,0.02,0.00,44.38,21.56,23.75,Low,-0.07,0.58,-0.08,0.81,
20190207151422090,1,1362359,7.53,-3.57,5.19,0.00,-0.03,-0.03,-48.38,-26.06,-0.13,Medium,-0.49,0.01,-0.78,0.38,
20190207151422123,2,1362390,-7.86,-3.48,4.39,-0.02,-0.00,-0.01,5.38,57.31,11.56,Medium,-0.26,0.47,0.07,0.84,
20190207151422124,3,1362402,-2.16,8.25,-5.05,0.02,0.21,-0.09,12.38,-44.69,-25.06,Medium,0.78,0.31,0.14,0.52,
20190207151422156,4,1362421,-8.96,-1.72,3.03,0.00,0.02,0.00,44.38,21.56,23.75,Low,-0.07,0.58,-0.08,0.81,
20190207151422189,1,1362453,7.72,-4.34,5.07,0.00,-0.03,-0.03,-48.38,-26.06,-0.13,Medium,-0.49,0.01,-0.78,0.38,
20190207151422190,2,1362473,-7.79,-3.52,4.24,-0.02,-0.00,-0.01,5.38,57.31,11.56,Medium,-0.26,0.47,0.07,0.84,
20190207151422226,3,1362512,-2.50,8.13,-5.28,0.02,0.21,-0.09,12.38,-44.69,-25.06,Medium,0.78,0.31,0.14,0.52,
20190207151422259,4,1362543,-8.96,-1.72,3.03,0.06,-0.00,-0.03,44.38,21.56,23.75,Low,-0.07,0.58,-0.08,0.81,
20190207151422294,1,1362561,7.38,-3.08,5.76,0.00,-0.03,-0.03,-48.38,-26.06,-0.13,Medium,-0.49,0.01,-0.78,0.38,
20190207151423326,2,1362591,-8.02,-3.48,4.31,-0.02,-0.00,-0.01,5.38,57.31,11.56,Medium,-0.26,0.47,0.07,0.84,
20190207151423327,3,1362601,-2.50,8.13,-5.28,-0.01,0.03,0.05,12.38,-44.69,-25.06,Medium,0.78,0.31,0.14,0.52,
20190207151423327,4,1362619,-8.96,-1.72,3.03,0.03,0.01,-0.01,44.38,21.56,23.75,Low,-0.07,0.58,-0.08,0.81,
20190207151423393,1,1362652,7.57,-3.88,6.26,0.00,-0.03,-0.03,-48.38,-26.06,-0.13,Medium,-0.49,0.01,-0.78,0.38,
20190207151423394,2,1362671,-7.79,-3.60,4.27,-0.02,-0.00,-0.01,5.38,57.31,11.56,Medium,-0.26,0.47,0.07,0.84,
20190207151423427,3,1362709,-2.50,8.13,-5.28,-0.02,-0.02,0.05,12.38,-44.69,-25.06,Medium,0.78,0.31,0.14,0.52,
20190207151423459,4,1362741,-8.96,-1.72,3.03,0.04,-0.00,0.01,44.38,21.56,23.75,Low,-0.07,0.58,-0.08,0.81,
20190207151423490,1,1362759,7.18,-3.50,4.92,0.00,-0.03,-0.03,-48.38,-26.06,-0.13,Medium,-0.49,0.01,-0.78,0.38,
20190207151423524,2,1362791,-7.79,-3.60,4.27,-0.02,-0.00,-0.01,5.38,57.31,12.44,Medium,-0.26,0.47,0.07,0.84,
20190207151423524,3,1362802,-2.50,8.13,-5.28,0.01,-0.02,0.05,12.38,-44.69,-25.06,Medium,0.78,0.31,0.14,0.52,
20190207151423561,4,1362819,-8.96,-1.72,3.03,0.00,-0.00,-0.01,44.38,21.56,23.75,Low,-0.07,0.58,-0.08,0.81,
20190207151423562,1,1362851,7.34,-3.80,5.07,0.00,-0.03,-0.03,-48.38,-26.06,-0.13,Medium,-0.49,0.01,-0.78,0.38,
20190207151423594,2,1362871,-7.90,-3.48,4.31,-0.02,-0.00,-0.01,5.38,57.31,12.44,Medium,-0.26,0.47,0.07,0.84,
20190207151423628,3,1362909,-2.00,8.21,-5.13,0.01,-0.02,0.05,12.38,-44.69,-25.06,Medium,0.78,0.31,0.14,0.52,
20190207151423660,4,1362941,-8.96,-1.72,3.03,0.03,-0.02,-0.01,44.38,21.56,23.75,Low,-0.07,0.58,-0.08,0.81,
20190207151423693,1,1362961,7.34,-3.80,5.07,0.00,-0.03,-0.03,-48.38,-26.06,-0.13,Medium,-0.48,0.02,-0.79,0.39,
20190207151423726,2,1362992,-7.90,-3.56,4.24,-0.02,-0.00,-0.01,5.38,57.31,12.44,Medium,-0.26,0.47,0.07,0.84,
20190207151423727,3,1363002,-2.00,8.21,-5.13,-0.04,-0.02,0.04,12.38,-44.69,-25.06,Medium,0.78,0.31,0.14,0.52,
20190207151423760,4,1363019,-8.96,-1.72,3.03,0.03,-0.00,-0.01,44.38,21.56,23.75,Low,-0.07,0.58,-0.08,0.81,
20190207151423760,1,1363051,7.57,-4.00,5.11,0.00,-0.03,-0.03,-48.38,-26.06,-0.13,Medium,-0.48,0.02,-0.79,0.39,
20190207151423792,2,1363072,-7.94,-3.52,4.31,-0.02,-0.00,-0.01,5.38,57.31,12.44,Medium,-0.26,0.47,0.07,0.84,
20190207151423826,3,1363110,-2.04,8.32,-4.94,-0.04,-0.02,0.04,12.38,-44.69,-25.06,Medium,0.78,0.31,0.14,0.52,
20190207151423860,4,1363142,-8.96,-1.72,3.03,0.01,0.02,-0.02,44.38,21.56,23.75,Low,-0.07,0.58,-0.08,0.81,
20190207151423892,1,1363161,7.64,-4.07,4.96,0.00,-0.03,-0.03,-48.38,-26.06,-0.13,Medium,-0.48,0.02,-0.79,0.39,
20190207151423925,2,1363191,-7.86,-3.48,4.43,-0.02,-0.00,-0.01,5.38,57.31,12.44,Medium,-0.26,0.47,0.07,0.84,
20190207151423925,3,1363201,-2.04,8.32,-4.94,-0.12,-0.43,0.17,12.38,-44.69,-25.06,Medium,0.78,0.31,0.14,0.52,
20190207151423957,4,1363218,-8.96,-1.72,3.03,-0.00,0.02,-0.02,44.38,21.56,23.75,Low,-0.07,0.58,-0.08,0.81,
20190207151423993,1,1363251,7.68,-4.61,4.19,0.00,-0.03,-0.03,-48.38,-26.06,-0.13,Medium,-0.48,0.02,-0.79,0.39,
20190207151423993,2,1363271,-7.82,-3.37,4.27,-0.02,-0.00,-0.01,5.38,57.31,12.44,Medium,-0.26,0.47,0.07,0.84,
20190207151423027,3,1363309,-2.16,8.44,-4.36,-0.12,-0.43,0.17,12.38,-44.69,-25.06,Medium,0.78,0.31,0.14,0.52,
20190207151423060,4,1363342,-8.96,-1.72,3.03,-0.01,-0.07,-0.03,44.38,21.56,23.75,Low,-0.07,0.58,-0.08,0.81,
20190207151423092,1,1363359,6.73,-5.68,4.57,0.00,-0.03,-0.03,-48.38,-26.06,-0.13,Medium,-0.48,0.02,-0.79,0.39,
20190207151423126,2,1363392,-7.82,-3.37,4.27,-0.02,-0.00,-0.01,5.50,56.25,11.13,Medium,-0.26,0.47,0.07,0.84,
20190207151423127,3,1363401,-1.54,8.44,-3.60,-0.12,-0.43,0.17,12.38,-44.69,-25.06,Medium,0.78,0.31,0.14,0.52,
20190207151423160,4,1363420,-8.89,-1.76,3.03,-0.01,-0.07,-0.03,44.38,21.56,23.75,Low,-0.07,0.58,-0.08,0.81,
20190207151423193,1,1363453,6.30,-5.64,4.27,0.00,-0.03,-0.03,-48.38,-26.06,-0.13,Medium,-0.48,0.02,-0.79,0.39,
20190207151423193,2,1363474,-7.90,-3.68,4.58,-0.02,-0.00,-0.01,5.50,56.25,11.13,Medium,-0.26,0.47,0.07,0.84,
20190207151423226,3,1363513,-2.12,8.67,-3.60,-0.12,-0.43,0.17,12.38,-44.69,-25.06,Medium,0.78,0.31,0.14,0.52,
20190207151423260,4,1363544,-8.89,-1.76,3.03,0.11,0.01,-0.04,44.38,21.56,23.75,Low,-0.07,0.58,-0.08,0.81,
20190207151423293,1,1363562,6.30,-5.64,4.27,-0.18,0.12,-0.10,-48.38,-26.06,-0.13,Medium,-0.48,0.02,-0.79,0.39,
20190207151424326,2,1363593,-7.90,-3.52,4.31,-0.02,-0.00,-0.01,5.50,56.25,11.13,Medium,-0.26,0.47,0.07,0.84,
20190207151424326,3,1363603,-2.35,8.82,-3.86,-0.12,-0.43,0.17,12.38,-44.69,-25.06,Medium,0.78,0.31,0.14,0.52,
20190207151424360,4,1363620,-8.89,-1.76,2.99,0.11,0.01,-0.04,44.38,21.56,23.75,Low,-0.07,0.58,-0.08,0.81,
20190207151424391,1,1363653,6.30,-5.64,4.27,-0.18,0.12,-0.10,-46.69,-29.19,-11.00,Medium,-0.48,0.02,-0.79,0.39,
20190207151424391,2,1363672,-7.90,-3.52,4.31,-0.02,-0.00,-0.01,4.69,57.06,10.75,Medium,-0.26,0.47,0.07,0.84,
20190207151424422,3,1363711,-2.35,8.82,-3.86,-0.12,-0.43,0.17,12.38,-44.69,-25.06,Medium,0.83,0.06,-0.10,0.54,
20190207151424460,4,1363743,-8.89,-1.76,2.99,0.12,-0.04,-0.04,44.38,21.56,23.75,Low,-0.07,0.58,-0.08,0.81,
20190207151424490,1,1363762,6.69,-5.72,4.15,-0.18,0.12,-0.10,-46.69,-29.19,-11.00,Medium,-0.48,0.02,-0.79,0.39,
20190207151424523,2,1363793,-7.82,-3.52,4.08,-0.02,-0.00,-0.01,4.69,57.06,10.75,Medium,-0.26,0.47,0.07,0.84,
20190207151424523,3,1363804,-2.35,8.82,-3.86,0.07,-0.04,0.12,12.38,-44.69,-25.06,Medium,0.83,0.06,-0.10,0.54,
20190207151424559,4,1363821,-8.89,-1.76,2.99,0.08,-0.04,-0.03,44.38,21.56,23.75,Low,-0.07,0.58,-0.08,0.81,
20190207151424593,1,1363853,6.69,-5.76,3.96,-0.18,0.12,-0.10,-46.69,-29.19,-11.00,Medium,-0.48,0.02,-0.79,0.39,
20190207151424594,2,1363873,-7.82,-3.75,4.43,-0.02,-0.00,-0.01,4.69,57.06,10.75,Medium,-0.26,0.47,0.07,0.84,
20190207151424627,3,1363911,-2.00,8.71,-4.06,0.07,-0.04,0.12,12.38,-44.69,-25.06,Medium,0.83,0.06,-0.10,0.54,
20190207151424660,4,1363943,-8.77,-1.76,3.22,0.08,-0.04,-0.03,44.38,21.56,23.75,Low,-0.07,0.58,-0.08,0.81,
20190207151424693,1,1363961,6.69,-5.95,3.77,-0.18,0.12,-0.10,-46.69,-29.19,-11.00,Medium,-0.48,0.02,-0.79,0.39,
20190207151424726,2,1363990,-7.82,-3.56,4.27,-0.02,-0.00,-0.01,4.69,57.06,10.75,Medium,-0.26,0.47,0.07,0.84,
20190207151424726,3,1364002,-1.89,8.71,-4.13,0.07,-0.04,0.12,12.38,-44.69,-25.06,Medium,0.83,0.06,-0.10,0.54,
20190207151424759,4,1364019,-8.77,-1.76,3.22,-0.02,0.03,-0.03,44.38,21.56,23.75,Low,-0.07,0.58,-0.08,0.81,
20190207151424791,1,1364053,6.84,-5.99,3.81,-0.18,0.12,-0.10,-46.69,-29.19,-11.00,Medium,-0.48,0.02,-0.79,0.39,
20190207151424791,2,1364073,-7.86,-3.60,4.31,-0.02,-0.00,-0.01,4.69,57.06,10.75,Medium,-0.26,0.47,0.07,0.84,
20190207151424825,3,1364111,-1.77,8.82,-4.21,0.07,-0.04,0.12,12.38,-44.69,-25.06,Medium,0.83,0.06,-0.10,0.54,
20190207151424859,4,1364142,-8.77,-1.76,3.22,-0.02,0.04,-0.03,44.38,21.56,23.75,Low,-0.07,0.58,-0.08,0.81,
20190207151424893,1,1364160,6.50,-6.18,3.81,-0.18,0.12,-0.10,-46.69,-29.19,-11.00,Medium,-0.48,0.02,-0.79,0.39,
20190207151424926,2,1364192,-7.71,-3.71,4.35,-0.02,-0.00,-0.01,4.69,57.06,10.75,Medium,-0.26,0.47,0.07,0.84,
20190207151424926,3,1364202,-1.77,8.82,-4.21,-0.02,0.36,0.01,12.38,-44.69,-25.06,Medium,0.83,0.06,-0.10,0.54,
20190207151424960,4,1364220,-8.85,-2.03,3.03,-0.02,0.04,-0.03,44.38,21.56,23.75,Low,-0.07,0.58,-0.08,0.81,
20190207151424960,1,1364253,6.50,-6.18,3.81,-0.18,0.12,-0.10,-44.50,-26.75,-16.75,Medium,-0.48,0.02,-0.79,0.39,
20190207151424992,2,1364273,-7.59,-3.98,4.54,-0.02,-0.00,-0.01,4.69,57.06,10.75,Medium,-0.26,0.47,0.07,0.84,
20190207151424026,3,1364313,-1.96,8.90,-4.09,-0.02,0.36,0.01,12.38,-44.69,-25.06,Medium,0.83,0.06,-0.10,0.54,
20190207151424058,4,1364345,-8.85,-2.03,3.03,0.08,0.03,-0.07,44.38,21.56,23.75,Low,-0.07,0.58,-0.08,0.81,
20190207151424093,1,1364362,6.50,-6.18,3.81,-0.18,0.10,-0.05,-44.50,-26.75,-16.75,Medium,-0.48,0.02,-0.79,0.39,
20190207151424125,2,1364393,-7.75,-3.98,4.35,-0.02,-0.00,-0.01,4.69,57.06,10.75,Medium,-0.26,0.47,0.07,0.84,
20190207151424125,3,1364405,-1.96,8.90,-4.09,-0.18,0.04,-0.03,12.38,-44.69,-25.06,Medium,0.83,0.06,-0.10,0.54,
20190207151424159,4,1364422,-8.85,-2.03,3.03,0.08,0.01,-0.06,44.38,21.56,23.75,Low,-0.07,0.58,-0.08,0.81,
20190207151424192,1,1364454,6.23,-6.53,3.65,-0.18,0.10,-0.05,-44.50,-26.75,-16.75,Medium,-0.48,0.02,-0.79,0.39,
20190207151424193,2,1364474,-7.79,-3.91,4.12,-0.02,-0.00,-0.01,4.69,57.06,10.75,Medium,-0.26,0.47,0.07,0.84,
20190207151424228,3,1364513,-1.96,8.90,-4.09,-0.19,-0.08,-0.07,12.38,-44.69,-25.06,Medium,0.83,0.06,-0.10,0.54,
20190207151424260,4,1364544,-8.85,-2.03,3.03,0.05,-0.03,-0.05,44.38,21.56,23.75,Low,-0.07,0.58,-0.08,0.81,
20190207151424292,1,1364562,6.34,-6.41,3.43,-0.18,0.10,-0.05,-44.50,-26.75,-16.75,Medium,-0.48,0.02,-0.79,0.39,
20190207151425325,2,1364594,-7.71,-3.91,4.31,-0.02,-0.00,-0.01,4.69,57.06,10.75,Medium,-0.26,0.47,0.07,0.84,
20190207151425325,3,1364604,-1.89,9.05,-3.52,-0.19,-0.08,-0.07,12.38,-44.69,-25.06,Medium,0.83,0.06,-0.10,0.54,
20190207151425356,4,1364622,-8.85,-2.03,3.03,0.04,-0.01,-0.02,44.38,21.56,23.75,Low,-0.07,0.58,-0.08,0.81,
20190207151425392,1,1364655,6.30,-6.53,3.35,-0.18,0.10,-0.05,-44.50,-26.75,-16.75,Medium,-0.48,0.02,-0.79,0.39,
20190207151425392,2,1364675,-7.59,-4.10,4.43,-0.02,-0.00,-0.01,4.69,57.06,10.75,Medium,-0.26,0.47,0.07,0.84,
20190207151425426,3,1364715,-1.89,9.05,-3.52,-0.05,-0.04,0.06,12.38,-44.69,-25.06,Medium,0.83,0.06,-0.10,0.54,
20190207151425456,4,1364746,-8.93,-2.03,3.03,0.04,-0.01,-0.02,44.38,21.56,23.75,Low,-0.07,0.58,-0.08,0.81,
20190207151425494,1,1364765,6.07,-6.56,3.62,-0.18,0.10,-0.05,-44.50,-26.75,-16.75,Medium,-0.48,0.02,-0.79,0.39,
20190207151425526,2,1364795,-7.71,-4.02,4.27,-0.02,-0.00,-0.01,4.69,57.06,10.75,Medium,-0.26,0.47,0.07,0.84,
20190207151425527,3,1364804,-1.89,9.05,-3.52,-0.05,0.00,0.02,12.38,-44.69,-25.06,Medium,0.83,0.06,-0.10,0.54,
20190207151425558,4,1364821,-8.93,-2.03,3.03,-0.00,-0.03,0.01,44.38,21.56,23.75,Low,-0.07,0.58,-0.08,0.81,
20190207151425594,1,1364854,6.00,-6.87,3.50,-0.18,0.10,-0.05,-44.50,-26.75,-16.75,Medium,-0.48,0.02,-0.79,0.39,
20190207151425594,2,1364873,-7.52,-4.17,4.27,-0.02,-0.00,-0.01,4.69,57.06,10.75,Medium,-0.26,0.47,0.07,0.84,
20190207151425626,3,1364914,-1.51,9.02,-3.64,-0.05,0.00,0.02,12.38,-44.69,-25.06,Medium,0.83,0.06,-0.10,0.54,
20190207151425659,4,1364946,-8.85,-2.03,3.29,-0.00,-0.03,0.01,44.38,21.56,23.75,Low,-0.07,0.58,-0.08,0.81,
20190207151425689,1,1364964,5.88,-6.68,3.58,-0.18,0.10,-0.05,-44.50,-26.75,-16.75,Medium,-0.48,0.02,-0.79,0.39,
20190207151425725,2,1364994,-7.52,-4.17,4.27,-0.04,-0.01,0.00,4.69,57.06,10.75,Medium,-0.26,0.47,0.07,0.84,
20190207151425725,3,1365003,-1.51,9.02,-3.64,-0.04,0.13,0.00,12.38,-44.69,-25.06,Medium,0.83,0.06,-0.10,0.54,
20190207151425757,4,1365020,-8.77,-1.99,3.26,-0.00,-0.03,0.01,44.38,21.56,23.75,Low,-0.07,0.58,-0.08,0.81,
20190207151425793,1,1365052,5.61,-6.72,3.62,-0.18,0.10,-0.05,-44.50,-26.75,-16.75,Medium,-0.48,0.02,-0.79,0.39,
20190207151425793,2,1365073,-7.67,-4.06,4.35,-0.04,-0.01,0.00,4.69,57.06,10.75,Medium,-0.26,0.47,0.07,0.84,
20190207151425826,3,1365112,-0.43,8.90,-3.71,-0.04,0.13,0.00,12.38,-44.69,-25.06,Medium,0.83,0.06,-0.10,0.54,
20190207151425861,4,1365144,-8.70,-2.03,3.29,-0.00,-0.03,0.01,44.38,21.56,23.75,Low,-0.07,0.58,-0.08,0.81,
20190207151425892,1,1365163,5.42,-7.25,3.65,-0.18,0.10,-0.05,-44.50,-26.75,-16.75,Medium,-0.48,0.02,-0.79,0.39,
20190207151425926,2,1365195,-7.56,-4.10,4.31,-0.04,-0.01,0.00,4.69,57.06,10.75,Medium,-0.26,0.47,0.07,0.84,
20190207151425926,3,1365203,-0.43,8.90,-3.71,0.12,1.28,-0.25,12.38,-44.69,-25.06,Medium,0.83,0.06,-0.10,0.54,
20190207151425959,4,1365220,-8.70,-2.03,3.29,0.00,0.06,0.00,44.38,21.56,23.75,Low,-0.07,0.58,-0.08,0.81,
20190207151425992,1,1365253,5.42,-7.25,3.65,-0.09,0.16,0.24,-44.50,-26.75,-16.75,Medium,-0.48,0.02,-0.79,0.39,
20190207151425993,2,1365272,-7.75,-4.06,4.24,-0.04,-0.01,0.00,4.69,57.06,10.75,Medium,-0.26,0.47,0.07,0.84,
20190207151425027,3,1365312,-0.43,8.90,-3.71,0.02,0.95,-0.15,12.38,-44.69,-25.06,Medium,0.83,0.06,-0.10,0.54,
20190207151425058,4,1365344,-8.70,-2.03,3.29,-0.00,0.09,-0.04,44.38,21.56,23.75,Low,-0.07,0.58,-0.08,0.81,
20190207151425089,1,1365362,5.31,-7.79,3.96,-0.09,0.16,0.24,-44.50,-26.75,-16.75,Medium,-0.48,0.02,-0.79,0.39,
20190207151425125,2,1365392,-7.67,-4.06,4.08,-0.04,-0.01,0.00,4.69,57.06,10.75,Medium,-0.26,0.47,0.07,0.84,
20190207151425125,3,1365401,-0.43,8.90,-3.71,-0.09,0.57,-0.06,12.38,-44.69,-25.06,Medium,0.83,0.06,-0.10,0.54,
20190207151425156,4,1365419,-8.93,-1.99,2.91,-0.00,0.09,-0.04,44.38,21.56,23.75,Low,-0.07,0.58,-0.08,0.81,
20190207151425192,1,1365452,4.66,-7.87,4.11,-0.09,0.16,0.24,-44.50,-26.75,-16.75,Medium,-0.48,0.02,-0.79,0.39,
20190207151425192,2,1365472,-7.67,-4.21,4.16,-0.04,-0.01,0.00,4.69,57.06,10.75,Medium,-0.26,0.47,0.07,0.84,
20190207151425226,3,1365513,-0.43,8.90,-3.71,-0.13,0.32,-0.02,12.38,-44.69,-25.06,Medium,0.83,0.06,-0.10,0.54,
20190207151425260,4,1365545,-8.85,-2.22,2.80,-0.00,0.09,-0.04,44.38,21.56,23.75,Low,-0.07,0.58,-0.08,0.81,
20190207151425291,1,1365563,4.66,-7.87,4.11,-0.09,0.16,0.24,-44.50,-26.75,-16.75,Medium,-0.38,0.39,-0.81,0.22,
20190207151426325,2,1365594,-7.71,-4.33,4.16,-0.04,-0.01,0.00,4.69,57.06,10.75,Medium,-0.26,0.47,0.07,0.84,
20190207151426325,3,1365604,-0.43,8.90,-3.71,-0.13,0.32,-0.02,19.75,-45.19,-22.00,Medium,0.83,0.06,-0.10,0.54,
20190207151426360,4,1365621,-8.85,-2.26,2.84,-0.00,0.09,-0.04,44.38,21.56,23.75,Low,-0.07,0.58,-0.08,0.81,
20190207151426391,1,1365654,4.66,-7.87,4.11,-0.09,0.16,0.24,-44.50,-26.75,-16.75,Medium,-0.35,0.42,-0.81,0.22,
20190207151426391,2,1365674,-7.71,-4.33,4.16,-0.07,-0.03,-0.07,4.69,57.06,10.75,Medium,-0.26,0.47,0.07,0.84,
20190207151426426,3,1365712,-0.43,8.90,-3.71,-0.11,0.17,-0.06,19.75,-45.19,-22.00,Medium,0.83,0.06,-0.10,0.54,
20190207151426459,4,1365744,-8.85,-2.26,2.84,0.03,0.01,-0.05,44.38,21.56,23.75,Low,-0.07,0.58,-0.08,0.81,
20190207151426491,1,1365763,4.66,-7.87,4.11,-0.15,0.35,0.19,-44.50,-26.75,-16.75,Medium,-0.35,0.42,-0.81,0.22,
20190207151426525,2,1365793,-7.52,-4.63,4.12,-0.07,-0.03,-0.07,4.69,57.06,10.75,Medium,-0.26,0.47,0.07,0.84,
20190207151426525,3,1365804,-0.43,8.90,-3.71,-0.11,0.11,-0.04,19.75,-45.19,-22.00,Medium,0.83,0.06,-0.10,0.54,
20190207151426560,4,1365822,-8.93,-2.38,2.80,0.03,0.01,-0.05,44.38,21.56,23.75,Low,-0.07,0.58,-0.08,0.81,
20190207151426594,1,1365854,2.36,-8.17,3.58,-0.15,0.35,0.19,-44.50,-26.75,-16.75,Medium,-0.35,0.42,-0.81,0.22,
20190207151426594,2,1365874,-7.40,-4.63,4.27,-0.07,-0.03,-0.07,4.69,57.06,10.75,Medium,-0.26,0.47,0.07,0.84,
20190207151426625,3,1365912,-0.43,8.90,-3.71,-0.09,0.04,-0.01,19.75,-45.19,-22.00,Medium,0.83,0.06,-0.10,0.54,
20190207151426659,4,1365943,-8.93,-2.38,2.80,-0.03,-0.01,-0.01,44.38,21.56,23.75,Low,-0.07,0.58,-0.08,0.81,
20190207151426692,1,1365961,2.36,-8.17,3.58,-0.16,-0.23,-0.07,-44.50,-26.75,-16.75,Medium,-0.35,0.42,-0.81,0.22,
20190207151426725,2,1365992,-7.44,-4.71,4.16,-0.07,-0.03,-0.07,4.69,57.06,10.75,Medium,-0.26,0.47,0.07,0.84,
20190207151426726,3,1366003,-0.43,8.90,-3.71,-0.08,0.01,0.01,19.75,-45.19,-22.00,Medium,0.83,0.06,-0.10,0.54,
20190207151426759,4,1366020,-8.93,-2.38,2.80,-0.03,-0.03,0.01,44.38,21.56,23.75,Low,-0.07,0.58,-0.08,0.81,
20190207151426792,1,1366054,2.36,-8.17,3.58,-0.16,-0.23,-0.07,-44.50,-26.75,-16.75,Medium,-0.32,0.44,-0.81,0.23,
20190207151426792,2,1366076,-7.33,-4.59,4.27,-0.07,-0.03,-0.07,4.69,57.06,10.75,Medium,-0.26,0.47,0.07,0.84,
20190207151426826,3,1366115,-0.43,8.90,-3.71,-0.03,0.03,-0.00,19.75,-45.19,-22.00,Medium,0.83,0.06,-0.10,0.54,
20190207151426858,4,1366147,-8.93,-2.38,2.80,-0.00,-0.04,0.02,44.38,21.56,23.75,Low,-0.07,0.58,-0.08,0.81,
20190207151426891,1,1366164,2.36,-8.17,3.58,-0.01,-0.10,0.06,-44.50,-26.75,-16.75,Medium,-0.32,0.44,-0.81,0.23,
20190207151426927,2,1366194,-7.33,-4.59,4.27,-0.01,0.00,0.04,4.69,57.06,10.75,Medium,-0.26,0.47,0.07,0.84,
20190207151426927,3,1366205,-0.43,8.90,-3.71,0.01,0.03,0.03,19.75,-45.19,-22.00,Medium,0.83,0.06,-0.10,0.54,
20190207151426959,4,1366223,-8.73,-2.34,2.91,-0.00,-0.04,0.02,44.38,21.56,23.75,Low,-0.07,0.58,-0.08,0.81,
20190207151426992,1,1366257,2.36,-8.17,3.58,-0.07,0.07,0.12,-44.50,-26.75,-16.75,Medium,-0.32,0.44,-0.81,0.23,
20190207151426992,2,1366276,-7.33,-4.59,4.43,-0.01,0.00,0.04,4.69,57.06,10.75,Medium,-0.26,0.47,0.07,0.84,
20190207151426025,3,1366315,-0.43,8.90,-3.71,0.01,0.03,0.03,19.75,-45.19,-22.00,Medium,0.79,0.22,0.12,0.56,
20190207151426059,4,1366347,-8.85,-2.26,2.95,-0.00,-0.04,0.02,44.38,21.56,23.75,Low,-0.07,0.58,-0.08,0.81,
20190207151426089,1,1366364,2.36,-8.17,3.58,-0.03,0.05,-0.02,-44.50,-26.75,-16.75,Medium,-0.32,0.44,-0.81,0.23,
20190207151426127,2,1366396,-7.37,-4.55,4.31,-0.01,0.00,0.04,4.69,57.06,10.75,Medium,-0.26,0.47,0.07,0.84,
20190207151426127,3,1366406,-0.43,9.29,-3.45,0.01,0.03,0.03,19.75,-45.19,-22.00,Medium,0.79,0.22,0.12,0.56,
20190207151426161,4,1366423,-8.85,-2.26,2.95,0.02,-0.00,0.02,44.38,21.56,23.75,Low,-0.07,0.58,-0.08,0.81,
20190207151426193,1,1366456,2.89,-8.52,3.92,-0.03,0.05,-0.02,-44.50,-26.75,-16.75,Medium,-0.32,0.44,-0.81,0.23,
20190207151426193,2,1366476,-7.37,-4.44,4.16,-0.01,0.00,0.04,4.69,57.06,10.75,Medium,-0.26,0.47,0.07,0.84,
20190207151426226,3,1366514,-0.43,9.29,-3.45,0.04,-0.03,-0.01,19.75,-45.19,-22.00,Medium,0.79,0.22,0.12,0.56,
20190207151426258,4,1366546,-8.81,-2.22,2.99,0.02,-0.00,0.02,44.38,21.56,23.75,Low,-0.07,0.58,-0.08,0.81,
20190207151426293,1,1366566,2.89,-8.52,3.92,-0.01,0.10,0.07,-44.50,-26.75,-16.75,Medium,-0.32,0.44,-0.81,0.23,
20190207151427326,2,1366596,-7.41,-4.48,4.35,-0.01,0.00,0.04,4.69,57.06,10.75,Medium,-0.26,0.47,0.07,0.84,
20190207151427326,3,1366606,-0.66,9.09,-3.60,0.04,-0.03,-0.01,19.75,-45.19,-22.00,Medium,0.79,0.22,0.12,0.56,
20190207151427359,4,1366623,-8.81,-2.22,2.99,0.03,-0.02,0.01,44.38,21.56,23.75,Low,-0.07,0.58,-0.08,0.81,
20190207151427393,1,1366657,2.47,-8.44,4.07,-0.01,0.10,0.07,-44.50,-26.75,-16.75,Medium,-0.32,0.44,-0.81,0.23,
20190207151427393,2,1366677,-7.45,-4.40,4.35,-0.01,0.00,0.04,4.69,57.06,10.75,Medium,-0.26,0.47,0.07,0.84,
20190207151427456,3,1366717,-0.63,9.17,-3.83,0.04,-0.03,-0.01,19.75,-45.19,-22.00,Medium,0.79,0.22,0.12,0.56,
20190207151427491,4,1366749,-8.89,-2.14,2.99,0.03,-0.02,0.01,44.38,21.56,23.75,Low,-0.07,0.58,-0.08,0.81,
20190207151427491,1,1366766,2.13,-10.16,4.65,-0.01,0.10,0.07,-44.50,-26.75,-16.75,Medium,-0.32,0.44,-0.81,0.23,
20190207151427523,2,1366796,-7.64,-4.29,4.66,-0.01,0.00,0.04,4.69,57.06,10.75,Medium,-0.26,0.47,0.07,0.84,
20190207151427523,3,1366806,-0.39,9.25,-3.64,0.04,-0.03,-0.01,19.75,-45.19,-22.00,Medium,0.79,0.22,0.12,0.56,
20190207151427559,4,1366823,-8.89,-2.14,2.99,-0.11,0.00,0.06,44.38,21.56,23.75,Low,-0.07,0.58,-0.08,0.81,
20190207151427589,1,1366857,1.98,-11.93,6.30,-0.01,0.10,0.07,-44.50,-26.75,-16.75,Medium,-0.32,0.44,-0.81,0.23,
20190207151427589,2,1366878,-8.79,-4.79,4.77,-0.01,0.00,0.04,4.69,57.06,10.75,Medium,-0.26,0.47,0.07,0.84,
20190207151427657,3,1366918,-0.39,9.02,-3.41,0.04,-0.03,-0.01,19.75,-45.19,-22.00,Medium,0.79,0.22,0.12,0.56,
20190207151427693,4,1366949,-8.89,-2.03,3.03,-0.11,0.00,0.06,44.38,21.56,23.75,Low,-0.07,0.58,-0.08,0.81,
20190207151427693,1,1366967,-1.74,-7.37,5.19,-0.01,0.10,0.07,-44.50,-26.75,-16.75,Medium,-0.32,0.44,-0.81,0.23,
20190207151427726,2,1366998,-8.79,-4.79,4.77,-0.78,-0.85,-0.65,4.69,57.06,10.75,Medium,-0.26,0.47,0.07,0.84,
20190207151427726,3,1367007,-0.93,9.09,-3.98,0.04,-0.03,-0.01,19.75,-45.19,-22.00,Medium,0.79,0.22,0.12,0.56,
20190207151427759,4,1367026,-8.89,-2.03,3.03,-0.04,-0.05,0.07,44.38,21.56,23.75,Low,-0.07,0.58,-0.08,0.81,
20190207151427792,1,1367060,-3.46,-3.38,3.00,-0.01,0.10,0.07,-44.50,-26.75,-16.75,Medium,-0.32,0.44,-0.81,0.23,
20190207151427792,2,1367080,-8.79,-4.79,4.77,-0.24,-0.31,0.04,4.69,57.06,10.75,Medium,-0.26,0.47,0.07,0.84,
20190207151427859,3,1367120,-0.82,8.98,-4.13,0.04,-0.03,-0.01,19.75,-45.19,-22.00,Medium,0.79,0.22,0.12,0.56,
20190207151427892,4,1367152,-8.93,-1.95,2.99,-0.04,-0.05,0.07,44.38,21.56,23.75,Low,-0.07,0.58,-0.08,0.81,
20190207151427892,1,1367171,-2.13,-7.02,1.59,-0.01,0.10,0.07,-44.50,-26.75,-16.75,Medium,-0.32,0.44,-0.81,0.23,
20190207151427925,2,1367201,-6.14,-6.51,4.31,-0.24,-0.31,0.04,4.69,57.06,10.75,Medium,-0.26,0.47,0.07,0.84,
20190207151427926,3,1367210,-0.20,9.02,-4.09,0.04,-0.03,-0.01,19.75,-45.19,-22.00,Medium,0.79,0.22,0.12,0.56,
20190207151427959,4,1367228,-8.93,-1.95,2.99,-0.12,-0.04,0.04,44.38,21.56,23.75,Low,-0.07,0.58,-0.08,0.81,
20190207151427992,1,1367261,1.52,-10.20,0.63,-0.01,0.10,0.07,-44.50,-26.75,-16.75,Medium,-0.32,0.44,-0.81,0.23,
20190207151427992,2,1367283,-6.14,-6.51,4.31,-0.36,-0.12,0.47,4.69,57.06,10.75,Medium,-0.26,0.47,0.07,0.84,
20190207151427059,3,1367322,0.02,9.17,-3.94,0.04,-0.03,-0.01,19.75,-45.19,-22.00,Medium,0.79,0.22,0.12,0.56,
20190207151427092,4,1367354,-8.81,-1.99,3.07,-0.12,-0.04,0.04,44.38,21.56,23.75,Low,-0.07,0.58,-0.08,0.81,
20190207151427092,1,1367371,1.52,-10.20,0.63,-0.01,0.10,0.07,-25.00,23.75,-35.94,Medium,-0.32,0.44,-0.81,0.23,
20190207151427125,2,1367401,-6.14,-6.51,4.31,-0.36,-0.22,0.10,4.69,57.06,10.75,Medium,-0.26,0.47,0.07,0.84,
20190207151427125,3,1367411,-0.36,8.82,-3.64,0.04,-0.03,-0.01,19.75,-45.19,-22.00,Medium,0.79,0.22,0.12,0.56,
20190207151427159,4,1367429,-8.89,-2.30,3.03,-0.12,-0.04,0.04,44.38,21.56,23.75,Low,-0.07,0.58,-0.08,0.81,
20190207151427192,1,1367463,1.52,-10.20,0.63,0.09,0.12,-0.61,-25.00,23.75,-35.94,Medium,-0.32,0.44,-0.81,0.23,
20190207151427192,2,1367483,-6.14,-6.51,4.31,-0.27,-0.04,0.19,4.69,57.06,10.75,Medium,-0.26,0.47,0.07,0.84,
20190207151427258,3,1367522,-0.36,8.82,-3.64,-0.03,0.07,-0.02,19.75,-45.19,-22.00,Medium,0.79,0.22,0.12,0.56,
20190207151427293,4,1367553,-8.89,-2.30,3.03,0.15,-0.05,-0.05,44.38,21.56,23.75,Low,-0.07,0.58,-0.08,0.81,
20190207151427293,1,1367571,1.52,-10.20,0.63,1.64,-0.68,0.04,-25.00,23.75,-35.94,Medium,-0.32,0.44,-0.81,0.23,
20190207151428325,2,1367601,-6.14,-6.51,4.31,0.09,0.17,0.10,4.69,57.06,10.75,Medium,-0.26,0.47,0.07,0.84,
20190207151428326,3,1367612,-0.93,9.13,-3.37,-0.03,0.07,-0.02,19.75,-45.19,-22.00,Medium,0.79,0.22,0.12,0.56,
20190207151428358,4,1367630,-8.70,-2.11,3.18,0.15,-0.05,-0.05,44.38,21.56,23.75,Low,-0.07,0.58,-0.08,0.81,
20190207151428394,1,1367663,1.52,-10.20,0.63,4.52,-2.51,2.12,-25.00,23.75,-35.94,Medium,-0.32,0.44,-0.81,0.23,
20190207151428394,2,1367683,-6.14,-6.51,4.31,0.22,0.24,-0.01,4.69,57.06,10.75,Medium,-0.26,0.47,0.07,0.84,
20190207151428458,3,1367721,-0.97,9.05,-3.90,-0.03,0.07,-0.02,19.75,-45.19,-22.00,Medium,0.79,0.22,0.12,0.56,
20190207151428494,4,1367752,-8.70,-2.11,3.18,0.38,0.14,-0.20,44.38,21.56,23.75,Low,-0.07,0.58,-0.08,0.81,
20190207151428494,1,1367771,1.52,-10.20,0.63,4.45,-2.73,2.75,-25.00,23.75,-35.94,Medium,-0.32,0.44,-0.81,0.23,
20190207151428526,2,1367800,-6.14,-6.51,4.31,0.40,0.13,0.06,4.69,57.06,10.75,Medium,-0.26,0.47,0.07,0.84,
20190207151428526,3,1367811,-0.97,9.05,-3.90,0.09,-0.50,0.29,19.75,-45.19,-22.00,Medium,0.79,0.22,0.12,0.56,
20190207151428560,4,1367828,-8.93,-1.38,3.14,0.38,0.14,-0.20,44.38,21.56,23.75,Low,-0.07,0.58,-0.08,0.81,
20190207151428591,1,1367860,1.52,-10.20,0.63,0.19,-0.47,-0.05,-25.00,23.75,-35.94,Medium,-0.32,0.44,-0.81,0.23,
20190207151428592,2,1367880,-6.14,-6.51,4.31,0.18,-0.17,-0.12,4.69,57.06,10.75,Medium,-0.26,0.47,0.07,0.84,
20190207151428657,3,1367917,1.21,8.82,-4.48,0.09,-0.50,0.29,19.75,-45.19,-22.00,Medium,0.79,0.22,0.12,0.56,
20190207151428692,4,1367949,-8.93,-1.38,3.14,-0.38,-0.04,0.11,44.38,21.56,23.75,Low,-0.07,0.58,-0.08,0.81,
20190207151428692,1,1367969,1.52,-10.20,0.63,-3.98,2.03,-1.12,-25.00,23.75,-35.94,Medium,-0.32,0.44,-0.81,0.23,
20190207151428725,2,1367998,-6.14,-6.51,4.31,0.18,-0.17,-0.12,9.19,47.50,32.69,Medium,-0.26,0.47,0.07,0.84,
20190207151428726,3,1368009,1.21,8.82,-4.48,-0.11,0.54,-0.17,19.75,-45.19,-22.00,Medium,0.79,0.22,0.12,0.56,
20190207151428758,4,1368027,-8.81,-2.34,3.07,-0.38,-0.04,0.11,44.38,21.56,23.75,Low,-0.07,0.58,-0.08,0.81,
20190207151428793,1,1368060,1.52,-10.20,0.63,-0.12,1.22,-1.61,-25.00,23.75,-35.94,Medium,-0.32,0.44,-0.81,0.23,
20190207151428793,2,1368080,-6.52,-5.25,3.59,0.18,-0.17,-0.12,9.19,47.50,32.69,Medium,-0.26,0.47,0.07,0.84,
20190207151428856,3,1368117,-0.39,9.02,-3.33,-0.11,0.54,-0.17,19.75,-45.19,-22.00,Medium,0.79,0.22,0.12,0.56,
20190207151428896,4,1368149,-8.70,-2.11,2.95,-0.38,-0.04,0.11,44.38,21.56,23.75,Low,-0.07,0.58,-0.08,0.81,
20190207151428896,1,1368166,-2.09,-8.82,4.54,-0.12,1.22,-1.61,-25.00,23.75,-35.94,Medium,-0.32,0.44,-0.81,0.23,
20190207151428925,2,1368195,-6.41,-5.90,4.01,0.18,-0.17,-0.12,9.19,47.50,32.69,Medium,-0.26,0.47,0.07,0.84,
20190207151428925,3,1368207,-0.63,9.17,-3.56,-0.11,0.54,-0.17,19.75,-45.19,-22.00,Medium,0.79,0.22,0.12,0.56,
20190207151428956,4,1368225,-8.70,-2.11,2.95,-0.38,-0.04,0.11,44.38,21.56,23.75,Low,-0.14,0.56,0.02,0.82,
20190207151428991,1,1368259,-2.09,-8.63,5.11,-0.12,1.22,-1.61,-25.00,23.75,-35.94,Medium,-0.32,0.44,-0.81,0.23,
20190207151428992,2,1368280,-6.41,-6.24,4.12,0.18,-0.17,-0.12,9.19,47.50,32.69,Medium,-0.26,0.47,0.07,0.84,
20190207151428026,3,1368317,-0.51,9.09,-3.67,-0.11,0.54,-0.17,19.75,-45.19,-22.00,Medium,0.79,0.22,0.12,0.56,
20190207151428090,4,1368348,-8.85,-2.07,3.22,-0.38,-0.04,0.11,44.38,21.56,23.75,Low,-0.14,0.56,0.02,0.82,
20190207151428090,1,1368366,-2.09,-8.63,5.11,-0.17,0.23,-0.19,-25.00,23.75,-35.94,Medium,-0.32,0.44,-0.81,0.23,
20190207151428126,2,1368395,-6.41,-6.24,4.12,0.10,0.07,0.02,9.19,47.50,32.69,Medium,-0.26,0.47,0.07,0.84,
20190207151428126,3,1368408,-0.32,9.17,-3.71,-0.11,0.54,-0.17,19.75,-45.19,-22.00,Medium,0.79,0.22,0.12,0.56,
20190207151428157,4,1368425,-8.85,-2.07,3.22,0.10,0.00,-0.05,44.38,21.56,23.75,Low,-0.14,0.56,0.02,0.82,
20190207151428192,1,1368457,-0.67,-7.98,5.91,-0.17,0.23,-0.19,-25.00,23.75,-35.94,Medium,-0.32,0.44,-0.81,0.23,
20190207151428193,2,1368477,-6.83,-5.63,3.78,0.10,0.07,0.02,9.19,47.50,32.69,Medium,-0.26,0.47,0.07,0.84,
20190207151428226,3,1368515,-0.05,9.17,-3.71,-0.11,0.54,-0.17,19.75,-45.19,-22.00,Medium,0.79,0.22,0.12,0.56,
20190207151428259,4,1368546,-8.85,-2.07,3.22,0.06,0.01,-0.03,44.38,21.56,23.75,Low,-0.14,0.56,0.02,0.82,
20190207151428291,1,1368566,-0.67,-7.98,5.91,-0.03,-0.01,0.03,-25.00,23.75,-35.94,Medium,-0.32,0.44,-0.81,0.23,
20190207151429327,2,1368595,-6.83,-5.63,3.78,0.08,0.02,-0.08,9.19,47.50,32.69,Medium,-0.26,0.47,0.07,0.84,
20190207151429327,3,1368609,0.10,9.13,-3.64,-0.11,0.54,-0.17,19.75,-45.19,-22.00,Medium,0.79,0.22,0.12,0.56,
20190207151429359,4,1368627,-8.85,-2.07,3.22,0.03,0.01,-0.03,44.38,21.56,23.75,Low,-0.14,0.56,0.02,0.82,
20190207151429393,1,1368659,-0.67,-7.98,5.91,-0.15,0.02,0.04,-25.00,23.75,-35.94,Medium,-0.32,0.44,-0.81,0.23,
20190207151429393,2,1368679,-6.91,-5.48,3.47,0.08,0.02,-0.08,9.19,47.50,32.69,Medium,-0.26,0.47,0.07,0.84,
20190207151429460,3,1368718,0.14,8.98,-3.56,-0.11,0.54,-0.17,19.75,-45.19,-22.00,Medium,0.79,0.22,0.12,0.56,
20190207151429460,4,1368749,-8.85,-2.07,3.22,0.02,0.01,0.01,44.38,21.56,23.75,Low,-0.14,0.56,0.02,0.82,
20190207151429493,1,1368767,-0.67,-7.98,5.91,-0.42,0.18,0.00,-25.00,23.75,-35.94,Medium,-0.32,0.44,-0.81,0.23,
20190207151429526,2,1368796,-6.91,-5.48,3.47,-0.04,-0.02,-0.12,9.19,47.50,32.69,Medium,-0.26,0.47,0.07,0.84,
20190207151429526,3,1368809,-0.13,9.13,-3.41,-0.11,0.54,-0.17,19.75,-45.19,-22.00,Medium,0.79,0.22,0.12,0.56,
20190207151429558,4,1368826,-8.85,-2.07,3.22,-0.05,0.00,0.02,44.38,21.56,23.75,Low,-0.14,0.56,0.02,0.82,
20190207151429592,1,1368861,-0.55,-8.82,5.00,-0.42,0.18,0.00,-25.00,23.75,-35.94,Medium,-0.32,0.44,-0.81,0.23,
20190207151429592,2,1368881,-6.79,-5.93,4.20,-0.04,-0.02,-0.12,9.19,47.50,32.69,Medium,-0.26,0.47,0.07,0.84,
20190207151429658,3,1368918,-0.32,9.36,-3.45,-0.11,0.54,-0.17,19.75,-45.19,-22.00,Medium,0.79,0.22,0.12,0.56,
20190207151429658,4,1368950,-8.73,-1.99,3.18,-0.05,0.00,0.02,44.38,21.56,23.75,Low,-0.14,0.56,0.02,0.82,
20190207151429692,1,1368967,-0.55,-8.82,5.00,-0.24,0.06,-0.15,-25.00,23.75,-35.94,Medium,-0.32,0.44,-0.81,0.23,
20190207151429725,2,1368997,-6.79,-5.93,4.20,-0.23,-0.32,-0.31,9.19,47.50,32.69,Medium,-0.26,0.47,0.07,0.84,
20190207151429726,3,1369009,0.02,9.13,-3.41,-0.11,0.54,-0.17,19.75,-45.19,-22.00,Medium,0.79,0.22,0.12,0.56,
20190207151429759,4,1369027,-8.73,-1.99,3.18,-0.04,-0.01,0.01,44.38,21.56,23.75,Low,-0.14,0.56,0.02,0.82,
20190207151429793,1,1369059,-0.55,-8.75,5.03,-0.24,0.06,-0.15,-25.00,23.75,-35.94,Medium,-0.32,0.44,-0.81,0.23,
20190207151429793,2,1369079,-5.91,-6.82,4.04,-0.23,-0.32,-0.31,9.19,47.50,32.69,Medium,-0.26,0.47,0.07,0.84,
20190207151429859,3,1369117,-0.20,9.29,-3.37,-0.11,0.54,-0.17,19.75,-45.19,-22.00,Medium,0.79,0.22,0.12,0.56,
20190207151429859,4,1369149,-8.77,-2.03,3.33,-0.04,-0.01,0.01,44.38,21.56,23.75,Low,-0.14,0.56,0.02,0.82,
20190207151429892,1,1369167,-0.55,-8.75,5.03,-0.13,0.21,0.45,-25.00,23.75,-35.94,Medium,-0.32,0.44,-0.81,0.23,
20190207151429926,2,1369196,-5.95,-7.09,4.04,-0.23,-0.32,-0.31,9.19,47.50,32.69,Medium,-0.26,0.47,0.07,0.84,
20190207151429926,3,1369209,-0.09,9.40,-3.45,-0.11,0.54,-0.17,19.75,-45.19,-22.00,Medium,0.79,0.22,0.12,0.56,
20190207151429959,4,1369226,-8.77,-2.03,3.33,0.02,0.04,-0.01,44.38,21.56,23.75,Low,-0.14,0.56,0.02,0.82,
20190207151429991,1,1369258,-0.55,-8.75,5.03,-0.89,0.90,1.32,-25.00,23.75,-35.94,Medium,-0.32,0.44,-0.81,0.23,
20190207151429991,2,1369281,-4.99,-7.50,3.81,-0.23,-0.32,-0.31,9.19,47.50,32.69,Medium,-0.26,0.47,0.07,0.84,
20190207151429058,3,1369319,0.21,9.09,-3.37,-0.11,0.54,-0.17,19.75,-45.19,-22.00,Medium,0.79,0.22,0.12,0.56,
20190207151429092,4,1369351,-8.96,-2.11,2.84,0.02,0.04,-0.01,44.38,21.56,23.75,Low,-0.14,0.56,0.02,0.82,
20190207151429092,1,1369370,-0.55,-8.75,5.03,-3.25,0.44,0.80,-25.00,23.75,-35.94,Medium,-0.32,0.44,-0.81,0.23,
20190207151429125,2,1369398,-4.99,-7.50,3.81,-1.12,-0.31,-0.53,9.19,47.50,32.69,Medium,-0.26,0.47,0.07,0.84,
20190207151429125,3,1369410,0.41,9.09,-3.52,-0.11,0.54,-0.17,19.75,-45.19,-22.00,Medium,0.79,0.22,0.12,0.56,
20190207151429158,4,1369427,-8.96,-2.11,2.84,0.13,0.01,0.00,44.38,21.56,23.75,Low,-0.14,0.56,0.02,0.82,
20190207151429194,1,1369460,-0.55,-8.75,5.03,5.40,-2.36,-0.88,-25.00,23.75,-35.94,Medium,-0.32,0.44,-0.81,0.23,
20190207151429194,2,1369483,-3.77,-9.80,2.51,-1.12,-0.31,-0.53,9.19,47.50,32.69,Medium,-0.26,0.47,0.07,0.84,
20190207151429259,3,1369521,0.79,9.13,-3.48,-0.11,0.54,-0.17,19.75,-45.19,-22.00,Medium,0.79,0.22,0.12,0.56,
20190207151429259,4,1369552,-8.70,-1.68,3.18,0.13,0.01,0.00,44.38,21.56,23.75,Low,-0.14,0.56,0.02,0.82,
20190207151429291,1,1369570,-0.21,-9.48,2.58,5.40,-2.36,-0.88,-25.00,23.75,-35.94,Medium,-0.32,0.44,-0.81,0.23,
20190207151430328,2,1369597,-3.15,-8.69,1.71,-1.12,-0.31,-0.53,9.19,47.50,32.69,Medium,-0.26,0.47,0.07,0.84,
20190207151430328,3,1369608,0.79,9.13,-3.48,0.10,0.01,0.06,19.75,-45.19,-22.00,Medium,0.79,0.22,0.12,0.56,
20190207151430360,4,1369625,-8.70,-1.68,3.18,-0.32,-0.09,0.23,44.38,21.56,23.75,Low,-0.14,0.56,0.02,0.82,
20190207151430391,1,1369658,-0.21,-9.48,2.58,-3.76,2.44,-0.27,-25.00,23.75,-35.94,Medium,-0.32,0.44,-0.81,0.23,
20190207151430391,2,1369682,-3.15,-8.69,1.71,-4.63,-2.04,-1.27,9.19,47.50,32.69,Medium,-0.26,0.47,0.07,0.84,
20190207151430459,3,1369721,0.79,9.13,-3.48,0.10,0.01,0.06,22.38,-44.94,-15.19,Medium,0.79,0.22,0.12,0.56,
20190207151430491,4,1369752,-8.81,-2.14,2.99,-0.32,-0.09,0.23,44.38,21.56,23.75,Low,-0.14,0.56,0.02,0.82,
20190207151430491,1,1369772,-0.21,-9.48,2.58,-2.03,2.92,0.13,-25.00,23.75,-35.94,Medium,-0.32,0.44,-0.81,0.23,
20190207151430525,2,1369800,-3.15,-8.69,1.71,-1.18,-1.53,-0.54,9.19,47.50,32.69,Medium,-0.26,0.47,0.07,0.84,
20190207151430525,3,1369812,0.41,9.17,-3.86,0.10,0.01,0.06,22.38,-44.94,-15.19,Medium,0.79,0.22,0.12,0.56,
20190207151430558,4,1369829,-8.81,-2.14,2.99,-0.01,-0.03,0.16,44.38,21.56,23.75,Low,-0.14,0.56,0.02,0.82,
20190207151430594,1,1369863,-1.47,-9.44,-6.27,-2.03,2.92,0.13,-25.00,23.75,-35.94,Medium,-0.32,0.44,-0.81,0.23,
20190207151430624,2,1369886,-3.15,-8.69,1.71,1.57,0.11,0.32,9.19,47.50,32.69,Medium,-0.26,0.47,0.07,0.84,
20190207151430658,3,1369924,0.41,9.17,-3.86,0.30,-0.18,-0.00,22.38,-44.94,-15.19,Medium,0.79,0.22,0.12,0.56,
20190207151430692,4,1369957,-8.81,-2.14,2.99,0.08,0.04,0.19,44.38,21.56,23.75,Low,-0.14,0.56,0.02,0.82,
20190207151430692,1,1369977,-1.93,-7.64,-4.66,-2.03,2.92,0.13,-25.00,23.75,-35.94,Medium,-0.32,0.44,-0.81,0.23,
20190207151430725,2,1370004,-3.15,-8.69,1.71,0.49,0.31,0.28,9.19,47.50,32.69,Medium,-0.26,0.47,0.07,0.84,
20190207151430725,3,1370015,0.41,8.75,-5.21,0.30,-0.18,-0.00,22.38,-44.94,-15.19,Medium,0.79,0.22,0.12,0.56,
20190207151430759,4,1370032,-8.96,-1.42,3.29,0.08,0.04,0.19,44.38,21.56,23.75,Low,-0.14,0.56,0.02,0.82,
20190207151430791,1,1370065,-1.63,-8.79,-4.35,-2.03,2.92,0.13,-25.00,23.75,-35.94,Medium,-0.32,0.44,-0.81,0.23,
20190207151430827,2,1370089,-3.15,-8.69,1.71,-0.11,0.35,0.32,9.19,47.50,32.69,Medium,-0.26,0.47,0.07,0.84,
20190207151430857,3,1370127,0.41,8.75,-5.21,0.30,-0.18,-0.00,22.38,-44.94,-15.19,Medium,0.82,0.25,0.16,0.48,
20190207151430892,4,1370159,-8.96,-1.42,3.29,0.35,-0.02,-0.10,44.38,21.56,23.75,Low,-0.14,0.56,0.02,0.82,
20190207151430892,1,1370177,-0.90,-9.32,-3.70,-2.03,2.92,0.13,-25.00,23.75,-35.94,Medium,-0.32,0.44,-0.81,0.23,
20190207151430927,2,1370205,-3.15,-8.69,1.71,0.05,0.50,0.28,9.19,47.50,32.69,Medium,-0.26,0.47,0.07,0.84,
20190207151430927,3,1370214,0.52,8.40,-5.13,0.30,-0.18,-0.00,22.38,-44.94,-15.19,Medium,0.82,0.25,0.16,0.48,
20190207151430956,4,1370232,-8.96,-0.50,3.33,0.35,-0.02,-0.10,44.38,21.56,23.75,Low,-0.14,0.56,0.02,0.82,
20190207151430992,1,1370266,-1.09,-8.82,-2.86,-2.03,2.92,0.13,-25.00,23.75,-35.94,Medium,-0.32,0.44,-0.81,0.23,
20190207151430025,2,1370289,-1.85,-9.42,-1.93,0.05,0.50,0.28,9.19,47.50,32.69,Medium,-0.26,0.47,0.07,0.84,
20190207151430058,3,1370330,0.48,8.29,-5.17,0.30,-0.18,-0.00,22.38,-44.94,-15.19,Medium,0.82,0.25,0.16,0.48,
20190207151430093,4,1370361,-8.96,-0.50,3.33,0.05,-0.07,-0.09,44.38,21.56,23.75,Low,-0.14,0.56,0.02,0.82,
20190207151430093,1,1370378,-1.66,-8.44,-3.32,-2.03,2.92,0.13,-25.00,23.75,-35.94,Medium,-0.32,0.44,-0.81,0.23,
20190207151430124,2,1370406,-1.85,-9.42,-1.93,0.02,0.37,0.04,9.19,47.50,32.69,Medium,-0.26,0.47,0.07,0.84,
20190207151430125,3,1370414,0.48,8.29,-5.17,0.30,-0.18,-0.00,22.38,-44.94,-15.19,Medium,0.84,0.21,0.14,0.48,
20190207151430157,4,1370433,-9.23,-1.19,3.71,0.05,-0.07,-0.09,44.38,21.56,23.75,Low,-0.14,0.56,0.02,0.82,
20190207151430190,1,1370465,-1.82,-9.05,-3.93,-2.03,2.92,0.13,-25.00,23.75,-35.94,Medium,-0.32,0.44,-0.81,0.23,
20190207151430227,2,1370487,-2.31,-9.50,-2.01,0.02,0.37,0.04,9.19,47.50,32.69,Medium,-0.26,0.47,0.07,0.84,
20190207151430257,3,1370527,0.83,8.75,-5.21,0.30,-0.18,-0.00,22.38,-44.94,-15.19,Medium,0.84,0.21,0.14,0.48,
20190207151430291,4,1370559,-8.31,-0.54,3.29,0.05,-0.07,-0.09,44.38,21.56,23.75,Low,-0.14,0.56,0.02,0.82,
20190207151430291,1,1370577,-1.82,-9.05,-3.93,-0.08,0.09,-0.05,-25.00,23.75,-35.94,Medium,-0.32,0.44,-0.81,0.23,
20190207151431323,2,1370604,-2.31,-9.50,-2.01,-0.01,-0.00,-0.10,9.19,47.50,32.69,Medium,-0.26,0.47,0.07,0.84,
20190207151431323,3,1370613,0.83,8.75,-5.21,0.30,-0.18,-0.00,22.38,-44.94,-15.19,Medium,0.84,0.19,0.14,0.49,
20190207151431357,4,1370630,-9.12,-1.38,3.14,0.05,-0.07,-0.09,44.38,21.56,23.75,Low,-0.14,0.56,0.02,0.82,
20190207151431391,1,1370663,-1.82,-9.02,-3.28,-0.08,0.09,-0.05,-25.00,23.75,-35.94,Medium,-0.32,0.44,-0.81,0.23,
20190207151431423,2,1370685,-2.31,-9.50,-2.01,-0.14,-0.01,0.04,9.19,47.50,32.69,Medium,-0.26,0.47,0.07,0.84,
20190207151431458,3,1370725,0.75,8.79,-4.79,0.30,-0.18,-0.00,22.38,-44.94,-15.19,Medium,0.84,0.19,0.14,0.49,
20190207151431489,4,1370757,-9.12,-1.38,3.14,-0.06,0.02,-0.04,44.38,21.56,23.75,Low,-0.14,0.56,0.02,0.82,
20190207151431489,1,1370775,-1.39,-8.94,-3.39,-0.08,0.09,-0.05,-25.00,23.75,-35.94,Medium,-0.32,0.44,-0.81,0.23,
20190207151431525,2,1370802,-1.66,-9.27,-2.43,-0.14,-0.01,0.04,9.19,47.50,32.69,Medium,-0.26,0.47,0.07,0.84,
20190207151431526,3,1370811,0.75,8.79,-4.79,-0.10,0.00,0.01,22.38,-44.94,-15.19,Medium,0.84,0.19,0.14,0.49,
20190207151431559,4,1370829,-8.93,-1.57,3.14,-0.06,0.02,-0.04,44.38,21.56,23.75,Low,-0.14,0.56,0.02,0.82,
20190207151431590,1,1370863,-1.39,-8.94,-3.39,-0.08,0.09,-0.05,-25.00,23.75,-35.94,Medium,-0.10,0.81,-0.55,0.17,
20190207151431625,2,1370887,-1.66,-9.27,-2.43,-0.01,-0.01,-0.00,9.19,47.50,32.69,Medium,-0.26,0.47,0.07,0.84,
20190207151431658,3,1370927,0.71,8.59,-4.59,-0.10,0.00,0.01,22.38,-44.94,-15.19,Medium,0.84,0.19,0.14,0.49,
20190207151431690,4,1370959,-8.93,-1.57,3.14,-0.07,0.02,-0.00,44.38,21.56,23.75,Low,-0.14,0.56,0.02,0.82,
20190207151431690,1,1370976,-1.39,-8.79,-3.01,-0.08,0.09,-0.05,-25.00,23.75,-35.94,Medium,-0.10,0.81,-0.55,0.17,
20190207151431726,2,1371004,-1.35,-10.76,-3.35,-0.01,-0.01,-0.00,9.19,47.50,32.69,Medium,-0.26,0.47,0.07,0.84,
20190207151431726,3,1371014,0.37,8.71,-4.55,-0.10,0.00,0.01,22.38,-44.94,-15.19,Medium,0.84,0.19,0.14,0.49,
20190207151431757,4,1371031,-8.93,-1.57,3.14,-0.07,0.02,-0.00,44.38,21.56,23.75,Low,-0.11,0.57,0.02,0.82,
20190207151431793,1,1371064,-1.39,-8.79,-3.01,-0.08,0.09,-0.05,-25.00,23.75,-35.94,Medium,-0.10,0.80,-0.56,0.18,
20190207151431826,2,1371087,-1.35,-10.76,-3.35,4.91,2.47,-0.91,9.19,47.50,32.69,Medium,-0.26,0.47,0.07,0.84,
20190207151431858,3,1371128,0.87,8.37,-4.70,-0.10,0.00,0.01,22.38,-44.94,-15.19,Medium,0.84,0.19,0.14,0.49,
20190207151431891,4,1371161,-8.93,-1.57,3.14,-0.01,0.03,-0.04,44.38,21.56,23.75,Low,-0.11,0.57,0.02,0.82,
20190207151431891,1,1371178,-1.59,-9.02,-1.90,-0.08,0.09,-0.05,-25.00,23.75,-35.94,Medium,-0.10,0.80,-0.56,0.18,
20190207151431924,2,1371207,0.98,5.40,2.93,4.91,2.47,-0.91,9.19,47.50,32.69,Medium,-0.26,0.47,0.07,0.84,
20190207151431924,3,1371216,0.87,8.37,-4.70,-0.07,0.22,-0.39,22.38,-44.94,-15.19,Medium,0.84,0.19,0.14,0.49,
20190207151431960,4,1371234,-9.00,-1.49,2.80,-0.01,0.03,-0.04,44.38,21.56,23.75,Low,-0.11,0.57,0.02,0.82,
20190207151431990,1,1371268,-1.43,-9.21,-1.75,-0.08,0.09,-0.05,-25.00,23.75,-35.94,Medium,-0.10,0.80,-0.56,0.18,
20190207151431024,2,1371291,0.98,5.40,2.93,-2.09,-0.32,1.73,9.19,47.50,32.69,Medium,-0.26,0.47,0.07,0.84,
20190207151431058,3,1371331,-0.40,8.83,-4.21,-0.07,0.22,-0.39,22.38,-44.94,-15.19,Medium,0.84,0.19,0.14,0.49,
20190207151431090,4,1371363,-8.77,-1.68,3.41,-0.01,0.03,-0.04,44.38,21.56,23.75,Low,-0.11,0.57,0.02,0.82,
20190207151431091,1,1371381,-1.43,-9.93,-0.94,-0.08,0.09,-0.05,-25.00,23.75,-35.94,Medium,-0.10,0.80,-0.56,0.18,
20190207151431124,2,1371409,0.98,5.40,2.93,-0.51,0.43,2.70,9.19,47.50,32.69,Medium,-0.26,0.47,0.07,0.84,
20190207151431158,3,1371419,0.18,9.09,-4.13,-0.07,0.22,-0.39,22.38,-44.94,-15.19,Medium,0.84,0.19,0.14,0.49,
20190207151431159,4,1371436,-8.62,-1.65,3.41,-0.01,0.03,-0.04,44.38,21.56,23.75,Low,-0.11,0.57,0.02,0.82,
20190207151431190,1,1371468,-2.13,-8.79,-1.94,-0.08,0.09,-0.05,-25.00,23.75,-35.94,Medium,-0.10,0.80,-0.56,0.18,
20190207151431225,2,1371490,-5.95,-8.39,4.50,-0.51,0.43,2.70,9.19,47.50,32.69,Medium,-0.26,0.47,0.07,0.84,
20190207151431259,3,1371531,0.18,9.09,-4.13,-0.07,0.22,-0.39,17.75,-47.75,-16.06,Medium,0.84,0.19,0.14,0.49,
20190207151431290,4,1371563,-8.93,-1.53,2.95,-0.01,0.03,-0.04,44.38,21.56,23.75,Low,-0.11,0.57,0.02,0.82,
20190207151431291,1,1371581,-2.13,-8.79,-1.94,4.38,-1.12,-0.44,-25.00,23.75,-35.94,Medium,-0.10,0.80,-0.56,0.18,
20190207151432324,2,1371609,-5.95,-8.39,4.50,-0.59,0.42,-0.18,9.19,47.50,32.69,Medium,-0.26,0.47,0.07,0.84,
20190207151432357,3,1371619,1.06,8.75,-4.59,-0.07,0.22,-0.39,17.75,-47.75,-16.06,Medium,0.84,0.19,0.14,0.49,
20190207151432358,4,1371637,-8.93,-1.53,2.95,0.04,-0.06,-0.02,44.38,21.56,23.75,Low,-0.11,0.57,0.02,0.82,
20190207151432390,1,1371670,1.82,-6.83,-0.25,4.38,-1.12,-0.44,-25.00,23.75,-35.94,Medium,-0.10,0.80,-0.56,0.18,
20190207151432424,2,1371693,-5.95,-8.39,4.50,-0.04,0.35,-0.09,9.19,47.50,32.69,Medium,-0.26,0.47,0.07,0.84,
20190207151432459,3,1371732,1.75,8.75,-4.05,-0.07,0.22,-0.39,17.75,-47.75,-16.06,Medium,0.84,0.19,0.14,0.49,
20190207151432490,4,1371764,-8.58,-1.15,3.29,0.04,-0.06,-0.02,44.38,21.56,23.75,Low,-0.11,0.57,0.02,0.82,
20190207151432490,1,1371781,1.82,-6.83,-0.25,-0.31,0.10,-0.16,-25.00,23.75,-35.94,Medium,-0.10,0.80,-0.56,0.18,
20190207151432525,2,1371809,-5.95,-8.39,4.50,-0.01,0.16,-0.33,9.19,47.50,32.69,Medium,-0.26,0.47,0.07,0.84,
20190207151432560,3,1371819,0.41,8.90,-3.94,-0.07,0.22,-0.39,17.75,-47.75,-16.06,Medium,0.84,0.19,0.14,0.49,
20190207151432560,4,1371836,-8.58,-1.15,3.29,-0.24,-0.11,0.07,44.38,21.56,23.75,Low,-0.11,0.57,0.02,0.82,
20190207151432590,1,1371867,1.82,-6.83,-0.25,-0.04,-0.19,-0.26,-25.00,23.75,-35.94,Medium,-0.10,0.80,-0.56,0.18,
20190207151432624,2,1371890,-4.11,-6.86,5.46,-0.01,0.16,-0.33,9.19,47.50,32.69,Medium,-0.26,0.47,0.07,0.84,
20190207151432658,3,1371930,0.33,9.09,-3.98,-0.07,0.22,-0.39,17.75,-47.75,-16.06,Medium,0.84,0.19,0.14,0.49,
20190207151432690,4,1371962,-8.58,-1.15,3.29,-0.24,-0.11,0.07,42.63,22.63,23.38,Low,-0.11,0.57,0.02,0.82,
20190207151432690,1,1371981,1.82,-6.83,-0.25,-0.30,-0.01,-0.14,-25.00,23.75,-35.94,Medium,-0.10,0.80,-0.56,0.18,
20190207151432723,2,1372009,-4.11,-6.86,5.46,-0.26,-0.16,0.02,9.19,47.50,32.69,Medium,-0.26,0.47,0.07,0.84,
20190207151432757,3,1372018,0.33,9.21,-3.90,-0.07,0.22,-0.39,17.75,-47.75,-16.06,Medium,0.84,0.19,0.14,0.49,
20190207151432757,4,1372036,-8.85,-1.76,3.18,-0.24,-0.11,0.07,42.63,22.63,23.38,Low,-0.11,0.57,0.02,0.82,
20190207151432790,1,1372067,0.52,-9.13,3.77,-0.30,-0.01,-0.14,-25.00,23.75,-35.94,Medium,-0.10,0.80,-0.56,0.18,
20190207151432825,2,1372091,-4.11,-6.86,5.46,-0.26,-0.16,0.02,9.19,47.50,32.69,Medium,-0.45,0.22,0.06,0.86,
20190207151432857,3,1372132,0.71,9.02,-3.55,-0.07,0.22,-0.39,17.75,-47.75,-16.06,Medium,0.84,0.19,0.14,0.49,
20190207151432890,4,1372163,-8.85,-1.84,3.07,-0.24,-0.11,0.07,42.63,22.63,23.38,Low,-0.11,0.57,0.02,0.82,
20190207151432890,1,1372181,0.63,-8.94,3.92,-0.30,-0.01,-0.14,-25.00,23.75,-35.94,Medium,-0.10,0.80,-0.56,0.18,
20190207151432924,2,1372209,-4.11,-6.86,5.46,-0.03,0.04,-0.14,9.19,47.50,32.69,Medium,-0.45,0.22,0.06,0.86,
20190207151432958,3,1372219,0.60,9.09,-3.55,-0.07,0.22,-0.39,17.75,-47.75,-16.06,Medium,0.84,0.19,0.14,0.49,
20190207151432958,4,1372236,-8.85,-1.80,3.07,-0.24,-0.11,0.07,42.63,22.63,23.38,Low,-0.11,0.57,0.02,0.82,
20190207151432990,1,1372271,0.75,-8.75,3.96,-0.30,-0.01,-0.14,-25.00,23.75,-35.94,Medium,-0.10,0.80,-0.56,0.18,
20190207151432025,2,1372294,-4.11,-6.86,5.46,0.01,0.07,-0.17,9.19,47.50,32.69,Medium,-0.45,0.22,0.06,0.86,
20190207151432057,3,1372333,0.60,9.09,-3.55,-0.08,0.01,-0.02,17.75,-47.75,-16.06,Medium,0.84,0.19,0.14,0.49,
20190207151432090,4,1372364,-8.70,-1.91,3.10,-0.24,-0.11,0.07,42.63,22.63,23.38,Low,-0.11,0.57,0.02,0.82,
20190207151432127,1,1372383,0.75,-8.75,3.96,0.04,0.05,-0.03,-25.00,23.75,-35.94,Medium,-0.10,0.80,-0.56,0.18,
20190207151432127,2,1372410,-4.11,-6.86,5.46,0.41,0.20,-0.13,9.19,47.50,32.69,Medium,-0.45,0.22,0.06,0.86,
20190207151432127,3,1372420,0.60,9.17,-3.40,-0.08,0.01,-0.02,17.75,-47.75,-16.06,Medium,0.84,0.19,0.14,0.49,
20190207151432158,4,1372438,-8.85,-1.99,3.18,-0.24,-0.11,0.07,42.63,22.63,23.38,Low,-0.11,0.57,0.02,0.82,
20190207151432192,1,1372470,0.75,-8.71,4.00,0.04,0.05,-0.03,-25.00,23.75,-35.94,Medium,-0.10,0.80,-0.56,0.18,
20190207151432227,2,1372494,-4.04,-7.47,5.35,0.41,0.20,-0.13,9.19,47.50,32.69,Medium,-0.45,0.22,0.06,0.86,
20190207151432256,3,1372534,0.68,9.17,-3.32,-0.08,0.01,-0.02,17.75,-47.75,-16.06,Medium,0.84,0.19,0.14,0.49,
20190207151432290,4,1372566,-8.93,-1.95,3.14,-0.24,-0.11,0.07,42.63,22.63,23.38,Low,-0.11,0.57,0.02,0.82,
20190207151433324,1,1372584,0.75,-8.71,4.00,0.03,0.04,-0.07,-25.00,23.75,-35.94,Medium,-0.10,0.80,-0.56,0.18,
20190207151433324,2,1372612,-4.04,-7.47,5.35,1.02,0.33,-0.30,9.19,47.50,32.69,Medium,-0.45,0.22,0.06,0.86,
20190207151433357,3,1372622,0.71,9.21,-3.29,-0.08,0.01,-0.02,17.75,-47.75,-16.06,Medium,0.84,0.19,0.14,0.49,
20190207151433357,4,1372639,-8.93,-1.95,3.14,0.04,-0.00,-0.04,42.63,22.63,23.38,Low,-0.11,0.57,0.02,0.82,
20190207151433393,1,1372671,0.75,-8.98,4.19,0.03,0.04,-0.07,-25.00,23.75,-35.94,Medium,-0.10,0.80,-0.56,0.18,
20190207151433424,2,1372694,-3.96,-5.86,7.64,1.02,0.33,-0.30,9.19,47.50,32.69,Medium,-0.45,0.22,0.06,0.86,
20190207151433457,3,1372732,0.71,9.21,-3.29,-0.01,-0.12,-0.05,17.75,-47.75,-16.06,Medium,0.84,0.19,0.14,0.49,
20190207151433491,4,1372764,-8.77,-2.03,3.29,0.04,-0.00,-0.04,42.63,22.63,23.38,Low,-0.11,0.57,0.02,0.82,
20190207151433492,1,1372782,0.75,-8.98,4.19,0.02,0.09,0.00,-25.00,23.75,-35.94,Medium,-0.10,0.80,-0.56,0.18,
20190207151433525,2,1372812,-2.70,-7.54,7.34,1.02,0.33,-0.30,9.19,47.50,32.69,Medium,-0.45,0.22,0.06,0.86,
20190207151433558,3,1372823,0.71,9.21,-3.29,0.01,-0.26,-0.09,17.75,-47.75,-16.06,Medium,0.84,0.19,0.14,0.49,
20190207151433558,4,1372840,-8.77,-2.03,3.29,0.05,0.04,-0.04,42.63,22.63,23.38,Low,-0.11,0.57,0.02,0.82,
20190207151433594,1,1372874,0.75,-8.98,4.19,0.05,0.10,0.01,-25.00,23.75,-35.94,Medium,-0.10,0.80,-0.56,0.18,
20190207151433625,2,1372895,-2.70,-7.54,7.34,1.02,0.33,-0.30,9.19,47.50,32.69,Medium,-0.55,0.07,0.04,0.83,
20190207151433658,3,1372934,0.71,9.21,-3.29,-0.03,-0.15,-0.11,17.75,-47.75,-16.06,Medium,0.84,0.19,0.14,0.49,
20190207151433692,4,1372966,-8.81,-1.88,3.10,0.05,0.04,-0.04,42.63,22.63,23.38,Low,-0.11,0.57,0.02,0.82,
20190207151433692,1,1372984,0.59,-8.71,3.92,0.05,0.10,0.01,-25.00,23.75,-35.94,Medium,-0.10,0.80,-0.56,0.18,
20190207151433724,2,1373015,-2.70,-7.54,7.34,1.02,0.33,-0.30,9.19,47.50,32.69,Medium,-0.55,0.05,0.04,0.83,
20190207151433757,3,1373027,0.25,9.17,-3.25,-0.03,-0.15,-0.11,17.75,-47.75,-16.06,Medium,0.84,0.19,0.14,0.49,
20190207151433758,4,1373044,-8.81,-1.88,3.10,0.01,-0.04,-0.02,42.63,22.63,23.38,Low,-0.11,0.57,0.02,0.82,
20190207151433791,1,1373076,0.59,-8.71,3.92,-0.06,0.02,-0.03,-25.00,23.75,-35.94,Medium,-0.10,0.80,-0.56,0.18,
20190207151433828,2,1373096,-1.28,-7.96,2.97,1.02,0.33,-0.30,9.19,47.50,32.69,Medium,-0.55,0.05,0.04,0.83,
20190207151433857,3,1373134,0.25,9.17,-3.25,0.05,-0.14,-0.05,17.75,-47.75,-16.06,Medium,0.84,0.19,0.14,0.49,
20190207151433891,4,1373165,-8.85,-2.03,3.29,0.01,-0.04,-0.02,42.63,22.63,23.38,Low,-0.11,0.57,0.02,0.82,
20190207151433925,1,1373183,0.59,-8.71,3.92,-0.05,0.01,0.01,-25.00,23.75,-35.94,Medium,-0.10,0.80,-0.56,0.18,
20190207151433925,2,1373214,-1.62,-8.39,4.58,1.02,0.33,-0.30,9.19,47.50,32.69,Medium,-0.55,0.05,0.04,0.83,
20190207151433956,3,1373226,-0.01,9.21,-3.55,0.05,-0.14,-0.05,17.75,-47.75,-16.06,Medium,0.84,0.19,0.14,0.49,
20190207151433956,4,1373245,-8.70,-2.07,3.14,0.01,-0.04,-0.02,42.63,22.63,23.38,Low,-0.11,0.57,0.02,0.82,
20190207151433992,1,1373277,0.59,-8.71,3.92,-0.05,0.01,0.01,-25.00,23.75,-35.94,Medium,-0.18,0.51,-0.81,0.22,
20190207151433026,2,1373297,-1.73,-8.73,5.16,1.02,0.33,-0.30,9.19,47.50,32.69,Medium,-0.55,0.05,0.04,0.83,
20190207151433059,3,1373336,-0.01,9.21,-3.55,0.05,-0.14,-0.05,17.75,-47.75,-16.06,Medium,0.79,0.21,0.16,0.55,
20190207151433091,4,1373368,-8.73,-2.07,3.26,0.01,-0.04,-0.02,42.63,22.63,23.38,Low,-0.11,0.57,0.02,0.82,
20190207151433125,1,1373386,0.59,-8.71,3.92,0.02,0.05,0.03,-25.00,23.75,-35.94,Medium,-0.18,0.51,-0.81,0.22,
20190207151433125,2,1373416,-1.54,-7.50,5.54,1.02,0.33,-0.30,9.19,47.50,32.69,Medium,-0.55,0.05,0.04,0.83,
20190207151433158,3,1373429,-0.28,9.25,-3.40,0.05,-0.14,-0.05,17.75,-47.75,-16.06,Medium,0.79,0.21,0.16,0.55,
20190207151433158,4,1373446,-8.77,-1.99,3.18,0.01,-0.04,-0.02,42.63,22.63,23.38,Low,-0.11,0.57,0.02,0.82,
20190207151433192,1,1373478,0.71,-8.63,4.00,0.02,0.05,0.03,-25.00,23.75,-35.94,Medium,-0.18,0.51,-0.81,0.22,
20190207151433226,2,1373498,-1.58,-7.16,6.69,1.02,0.33,-0.30,9.19,47.50,32.69,Medium,-0.55,0.05,0.04,0.83,
20190207151433258,3,1373536,-0.51,9.36,-3.48,0.05,-0.14,-0.05,17.75,-47.75,-16.06,Medium,0.79,0.21,0.16,0.55,
20190207151433291,4,1373568,-8.77,-1.99,3.18,0.00,-0.01,-0.02,42.63,22.63,23.38,Low,-0.11,0.57,0.02,0.82,
20190207151434325,1,1373586,0.71,-8.63,4.00,0.05,-0.06,-0.05,-25.00,23.75,-35.94,Medium,-0.18,0.51,-0.81,0.22,
20190207151434357,2,1373618,-2.92,-4.10,7.03,1.02,0.33,-0.30,9.19,47.50,32.69,Medium,-0.55,0.05,0.04,0.83,
20190207151434357,3,1373630,-1.16,9.17,-3.17,0.05,-0.14,-0.05,17.75,-47.75,-16.06,Medium,0.79,0.21,0.16,0.55,
20190207151434357,4,1373648,-8.77,-2.03,3.26,0.00,-0.01,-0.02,42.63,22.63,23.38,Low,-0.11,0.57,0.02,0.82,
20190207151434423,1,1373684,0.71,-8.63,4.00,-0.02,0.03,0.02,-25.00,23.75,-35.94,Medium,-0.18,0.51,-0.81,0.22,
20190207151434423,2,1373704,-2.77,-5.13,7.61,1.02,0.33,-0.30,9.19,47.50,32.69,Medium,-0.55,0.05,0.04,0.83,
20190207151434458,3,1373741,0.25,9.13,-2.94,0.05,-0.14,-0.05,17.75,-47.75,-16.06,Medium,0.79,0.21,0.16,0.55,
20190207151434490,4,1373772,-8.77,-2.03,3.26,0.00,-0.01,-0.02,39.13,24.50,21.38,Low,-0.11,0.57,0.02,0.82,
20190207151434527,1,1373789,0.71,-8.63,4.00,-0.03,0.11,0.04,-25.00,23.75,-35.94,Medium,-0.18,0.51,-0.81,0.22,
20190207151434527,2,1373820,-2.50,-5.48,8.22,1.02,0.33,-0.30,9.19,47.50,32.69,Medium,-0.55,0.05,0.04,0.83,
20190207151434557,3,1373832,-0.24,9.44,-3.21,0.05,-0.14,-0.05,17.75,-47.75,-16.06,Medium,0.79,0.21,0.16,0.55,
20190207151434594,4,1373850,-8.77,-2.03,3.26,0.11,0.06,-0.08,39.13,24.50,21.38,Low,-0.11,0.57,0.02,0.82,
20190207151434594,1,1373882,0.71,-8.63,4.00,-0.03,0.13,-0.02,-25.00,23.75,-35.94,Medium,-0.18,0.51,-0.81,0.22,
20190207151434626,2,1373903,-2.50,-5.48,8.22,0.15,0.20,-0.22,9.19,47.50,32.69,Medium,-0.55,0.05,0.04,0.83,
20190207151434660,3,1373940,-0.89,9.48,-3.32,0.05,-0.14,-0.05,17.75,-47.75,-16.06,Medium,0.79,0.21,0.16,0.55,
20190207151434691,4,1373972,-8.77,-2.03,3.26,0.07,0.04,-0.06,39.13,24.50,21.38,Low,-0.11,0.57,0.02,0.82,
20190207151434724,1,1373990,0.52,-8.71,4.11,-0.03,0.13,-0.02,-25.00,23.75,-35.94,Medium,-0.18,0.51,-0.81,0.22,
20190207151434757,2,1374020,-2.50,-5.48,8.22,-0.23,-0.01,-0.45,9.19,47.50,32.69,Medium,-0.55,0.05,0.04,0.83,
20190207151434757,3,1374034,-0.89,9.48,-3.32,0.05,-0.14,-0.05,0.69,-45.25,-29.88,Medium,0.79,0.21,0.16,0.55,
20190207151434789,4,1374051,-8.77,-2.03,3.26,0.08,0.06,-0.04,39.13,24.50,21.38,Low,-0.11,0.57,0.02,0.82,
20190207151434824,1,1374083,0.52,-8.75,4.07,-0.03,0.13,-0.02,-25.00,23.75,-35.94,Medium,-0.18,0.51,-0.81,0.22,
20190207151434825,2,1374104,-2.50,-5.48,8.22,-0.51,-0.00,-0.59,9.19,47.50,32.69,Medium,-0.55,0.05,0.04,0.83,
20190207151434858,3,1374141,-0.55,9.29,-3.32,0.05,-0.14,-0.05,0.69,-45.25,-29.88,Medium,0.79,0.21,0.16,0.55,
20190207151434892,4,1374173,-8.81,-2.18,3.29,0.08,0.06,-0.04,39.13,24.50,21.38,Low,-0.11,0.57,0.02,0.82,
20190207151434925,1,1374191,0.52,-9.32,4.11,-0.03,0.13,-0.02,-25.00,23.75,-35.94,Medium,-0.18,0.51,-0.81,0.22,
20190207151434958,2,1374220,-2.50,-5.48,8.22,0.42,0.32,-0.80,9.19,47.50,32.69,Medium,-0.55,0.05,0.04,0.83,
20190207151434958,3,1374234,-0.55,9.29,-3.32,0.13,-0.27,0.16,0.69,-45.25,-29.88,Medium,0.79,0.21,0.16,0.55,
20190207151434991,4,1374251,-8.81,-2.18,3.29,0.04,-0.00,-0.02,39.13,24.50,21.38,Low,-0.11,0.57,0.02,0.82,
20190207151434025,1,1374285,0.40,-8.86,3.96,-0.03,0.13,-0.02,-25.00,23.75,-35.94,Medium,-0.18,0.51,-0.81,0.22,
20190207151434025,2,1374306,-2.50,-5.48,8.22,0.70,0.42,-0.85,9.19,47.50,32.69,Medium,-0.55,0.05,0.04,0.83,
20190207151434057,3,1374342,-0.43,9.09,-3.55,0.13,-0.27,0.16,0.69,-45.25,-29.88,Medium,0.79,0.21,0.16,0.55,
20190207151434090,4,1374373,-8.81,-2.18,3.29,0.01,-0.04,0.00,39.13,24.50,21.38,Low,-0.11,0.57,0.02,0.82,
20190207151434124,1,1374391,0.67,-8.82,3.81,-0.03,0.13,-0.02,-25.00,23.75,-35.94,Medium,-0.18,0.51,-0.81,0.22,
20190207151434157,2,1374421,-2.50,-5.48,8.22,1.19,0.34,-0.62,9.19,47.50,32.69,Medium,-0.55,0.05,0.04,0.83,
20190207151434157,3,1374434,-0.43,9.09,-3.55,0.05,-0.04,0.12,0.69,-45.25,-29.88,Medium,0.79,0.21,0.16,0.55,
20190207151434191,4,1374451,-8.81,-2.18,3.29,0.00,0.07,0.01,39.13,24.50,21.38,Low,-0.11,0.57,0.02,0.82,
20190207151434223,1,1374487,0.67,-8.82,3.81,-0.03,0.00,0.00,-25.00,23.75,-35.94,Medium,-0.18,0.51,-0.81,0.22,
20190207151434224,2,1374507,-2.46,-3.60,8.18,1.19,0.34,-0.62,9.19,47.50,32.69,Medium,-0.55,0.05,0.04,0.83,
20190207151434257,3,1374544,-0.24,8.94,-3.67,0.05,-0.04,0.12,0.69,-45.25,-29.88,Medium,0.79,0.21,0.16,0.55,
20190207151434290,4,1374576,-8.73,-2.22,3.22,0.00,0.07,0.01,39.13,24.50,21.38,Low,-0.11,0.57,0.02,0.82,
20190207151435324,1,1374593,0.63,-8.86,3.88,-0.03,0.00,0.00,-25.00,23.75,-35.94,Medium,-0.18,0.51,-0.81,0.22,
20190207151435358,2,1374623,-2.46,-3.60,8.18,0.03,-0.33,-0.19,9.19,47.50,32.69,Medium,-0.55,0.05,0.04,0.83,
20190207151435358,3,1374636,-0.24,8.94,-3.67,-0.00,-0.03,-0.05,0.69,-45.25,-29.88,Medium,0.79,0.21,0.16,0.55,
20190207151435392,4,1374653,-8.73,-2.22,3.22,-0.02,-0.00,-0.01,39.13,24.50,21.38,Low,-0.11,0.57,0.02,0.82,
20190207151435425,1,1374685,0.63,-8.86,3.88,0.02,-0.04,0.03,-25.00,23.75,-35.94,Medium,-0.18,0.51,-0.81,0.22,
20190207151435425,2,1374704,-0.55,-3.56,6.57,0.03,-0.33,-0.19,9.19,47.50,32.69,Medium,-0.55,0.05,0.04,0.83,
20190207151435458,3,1374742,-0.24,8.94,-3.67,0.03,0.04,0.07,0.69,-45.25,-29.88,Medium,0.79,0.21,0.16,0.55,
20190207151435490,4,1374774,-8.70,-2.22,3.26,-0.02,-0.00,-0.01,39.13,24.50,21.38,Low,-0.11,0.57,0.02,0.82,
20190207151435525,1,1374792,0.86,-9.44,4.07,0.02,-0.04,0.03,-25.00,23.75,-35.94,Medium,-0.18,0.51,-0.81,0.22,
20190207151435557,2,1374822,-0.55,-3.56,6.57,-0.59,0.22,0.66,9.19,47.50,32.69,Medium,-0.55,0.05,0.04,0.83,
20190207151435557,3,1374834,0.10,9.09,-3.67,0.03,0.04,0.07,0.69,-45.25,-29.88,Medium,0.79,0.21,0.16,0.55,
20190207151435594,4,1374852,-8.81,-2.14,3.26,-0.02,-0.00,-0.01,39.13,24.50,21.38,Low,-0.11,0.57,0.02,0.82,
20190207151435594,1,1374884,0.52,-8.90,4.23,0.02,-0.04,0.03,-25.00,23.75,-35.94,Medium,-0.18,0.51,-0.81,0.22,
20190207151435624,2,1374905,-0.55,-3.56,6.57,-0.97,-0.26,0.59,9.19,47.50,32.69,Medium,-0.55,0.05,0.04,0.83,
20190207151435658,3,1374942,-0.01,8.98,-3.75,0.03,0.04,0.07,0.69,-45.25,-29.88,Medium,0.79,0.21,0.16,0.55,
20190207151435691,4,1374974,-8.77,-2.11,3.10,-0.02,-0.00,-0.01,39.13,24.50,21.38,Low,-0.11,0.57,0.02,0.82,
20190207151435724,1,1374992,0.44,-8.75,4.15,0.02,-0.04,0.03,-25.00,23.75,-35.94,Medium,-0.18,0.51,-0.81,0.22,
20190207151435757,2,1375021,-0.55,-3.56,6.57,-1.10,-0.79,0.82,9.19,47.50,32.69,Medium,-0.55,0.05,0.04,0.83,
20190207151435758,3,1375032,-0.01,8.98,-3.75,-0.02,0.08,-0.25,0.69,-45.25,-29.88,Medium,0.79,0.21,0.16,0.55,
20190207151435791,4,1375050,-8.77,-2.11,3.10,-0.02,-0.02,0.00,39.13,24.50,21.38,Low,-0.11,0.57,0.02,0.82,
20190207151435823,1,1375084,0.63,-8.71,4.07,0.02,-0.04,0.03,-25.00,23.75,-35.94,Medium,-0.18,0.51,-0.81,0.22,
20190207151435824,2,1375105,-0.55,-3.56,6.57,-1.10,-0.79,0.82,9.19,47.50,32.69,Medium,-0.27,0.18,-0.22,0.92,
20190207151435857,3,1375143,-0.32,8.90,-3.71,-0.02,0.08,-0.25,0.69,-45.25,-29.88,Medium,0.79,0.21,0.16,0.55,
20190207151435889,4,1375176,-8.77,-2.11,3.10,-0.02,-0.02,0.00,39.13,24.50,21.38,Low,-0.13,0.56,-0.02,0.82,
20190207151435924,1,1375193,0.63,-8.90,4.19,0.02,-0.04,0.03,-25.00,23.75,-35.94,Medium,-0.18,0.51,-0.81,0.22,
20190207151435958,2,1375225,-0.55,-3.56,6.57,-0.06,-0.07,0.38,9.19,47.50,32.69,Medium,-0.27,0.18,-0.22,0.92,
20190207151435959,3,1375236,-0.32,8.90,-3.71,0.21,1.88,-0.43,0.69,-45.25,-29.88,Medium,0.79,0.21,0.16,0.55,
20190207151435991,4,1375253,-8.77,-2.11,3.10,-0.06,-0.01,0.02,39.13,24.50,21.38,Low,-0.13,0.56,-0.02,0.82,
20190207151435025,1,1375287,0.67,-8.48,3.84,0.02,-0.04,0.03,-25.00,23.75,-35.94,Medium,-0.18,0.51,-0.81,0.22,
20190207151435025,2,1375308,-0.55,-3.56,6.57,-0.03,0.09,0.23,9.19,47.50,32.69,Medium,-0.27,0.18,-0.22,0.92,
20190207151435058,3,1375346,-0.32,8.90,-3.71,0.24,2.21,-0.61,0.69,-45.25,-29.88,Medium,0.79,0.21,0.16,0.55,
20190207151435091,4,1375378,-8.81,-2.07,3.07,-0.06,-0.01,0.02,39.13,24.50,21.38,Low,-0.13,0.56,-0.02,0.82,
20190207151435123,1,1375395,0.56,-9.13,4.11,0.02,-0.04,0.03,-25.00,23.75,-35.94,Medium,-0.18,0.51,-0.81,0.22,
20190207151435158,2,1375426,-0.55,-3.56,6.57,0.50,-0.04,-0.13,9.19,47.50,32.69,Medium,-0.27,0.18,-0.22,0.92,
20190207151435158,3,1375438,-1.09,9.06,-4.36,0.24,2.21,-0.61,0.69,-45.25,-29.88,Medium,0.79,0.21,0.16,0.55,
20190207151435190,4,1375455,-8.81,-2.07,3.07,-0.10,-0.06,0.04,39.13,24.50,21.38,Low,-0.13,0.56,-0.02,0.82,
20190207151435224,1,1375487,0.56,-9.13,4.11,0.02,-0.12,0.01,-25.00,23.75,-35.94,Medium,-0.18,0.51,-0.81,0.22,
20190207151435224,2,1375508,-2.16,-5.40,8.11,0.50,-0.04,-0.13,9.19,47.50,32.69,Medium,-0.27,0.18,-0.22,0.92,
20190207151435257,3,1375545,-1.09,9.06,-4.36,0.24,2.21,-0.61,0.69,-45.25,-29.88,Medium,0.82,0.17,0.12,0.53,
20190207151435293,4,1375577,-8.62,-2.22,3.45,-0.10,-0.06,0.04,39.13,24.50,21.38,Low,-0.13,0.56,-0.02,0.82,
20190207151436324,1,1375596,0.56,-9.13,4.11,0.02,-0.12,0.01,-23.75,0.50,-43.25,Medium,-0.18,0.51,-0.81,0.22,
20190207151436357,2,1375625,-2.16,-5.40,8.11,0.53,-0.10,-0.34,9.19,47.50,32.69,Medium,-0.27,0.18,-0.22,0.92,
20190207151436358,3,1375637,0.06,9.06,-3.86,0.24,2.21,-0.61,0.69,-45.25,-29.88,Medium,0.82,0.17,0.12,0.53,
20190207151436392,4,1375655,-8.89,-2.18,3.18,-0.10,-0.06,0.04,39.13,24.50,21.38,Low,-0.13,0.56,-0.02,0.82,
20190207151436424,1,1375688,0.75,-8.75,4.00,0.02,-0.12,0.01,-23.75,0.50,-43.25,Medium,-0.18,0.51,-0.81,0.22,
20190207151436424,2,1375708,-1.58,-4.48,8.68,0.53,-0.10,-0.34,9.19,47.50,32.69,Medium,-0.27,0.18,-0.22,0.92,
20190207151436457,3,1375745,0.06,9.06,-3.86,-0.08,0.00,-0.05,0.69,-45.25,-29.88,Medium,0.82,0.17,0.12,0.53,
20190207151436491,4,1375778,-8.89,-2.18,3.18,-0.10,-0.06,0.04,37.56,23.56,24.50,Low,-0.13,0.56,-0.02,0.82,
20190207151436524,1,1375796,0.86,-8.71,4.04,0.02,-0.12,0.01,-23.75,0.50,-43.25,Medium,-0.18,0.51,-0.81,0.22,
20190207151436560,2,1375826,-1.24,-4.17,8.49,0.53,-0.10,-0.34,9.19,47.50,32.69,Medium,-0.27,0.18,-0.22,0.92,
20190207151436560,3,1375838,0.29,8.98,-3.71,-0.08,0.00,-0.05,0.69,-45.25,-29.88,Medium,0.82,0.17,0.12,0.53,
20190207151436594,4,1375855,-8.73,-2.30,2.99,-0.10,-0.06,0.04,37.56,23.56,24.50,Low,-0.13,0.56,-0.02,0.82,
20190207151436623,1,1375888,0.86,-8.71,4.04,0.00,-0.07,-0.04,-23.75,0.50,-43.25,Medium,-0.18,0.51,-0.81,0.22,
20190207151436623,2,1375909,-1.51,-3.33,8.72,0.53,-0.10,-0.34,9.19,47.50,32.69,Medium,-0.27,0.18,-0.22,0.92,
20190207151436658,3,1375946,0.29,8.98,-3.71,-0.05,0.14,-0.02,0.69,-45.25,-29.88,Medium,0.82,0.17,0.12,0.53,
20190207151436691,4,1375977,-8.81,-2.30,3.03,-0.10,-0.06,0.04,37.56,23.56,24.50,Low,-0.13,0.56,-0.02,0.82,
20190207151436726,1,1375995,0.75,-9.09,4.30,0.00,-0.07,-0.04,-23.75,0.50,-43.25,Medium,-0.18,0.51,-0.81,0.22,
20190207151436759,2,1376024,-1.51,-3.33,8.72,-0.13,-0.18,-0.25,9.19,47.50,32.69,Medium,-0.27,0.18,-0.22,0.92,
20190207151436760,3,1376036,0.21,9.13,-3.71,-0.05,0.14,-0.02,0.69,-45.25,-29.88,Medium,0.82,0.17,0.12,0.53,
20190207151436790,4,1376053,-8.81,-2.30,3.10,-0.10,-0.06,0.04,37.56,23.56,24.50,Low,-0.13,0.56,-0.02,0.82,
20190207151436823,1,1376085,0.75,-9.09,4.30,0.05,0.03,0.10,-23.75,0.50,-43.25,Medium,-0.18,0.51,-0.81,0.22,
20190207151436823,2,1376106,-1.16,-2.72,8.49,-0.13,-0.18,-0.25,9.19,47.50,32.69,Medium,-0.27,0.18,-0.22,0.92,
20190207151436857,3,1376143,0.21,9.13,-3.71,-0.02,0.13,0.06,0.69,-45.25,-29.88,Medium,0.82,0.17,0.12,0.53,
20190207151436890,4,1376175,-8.85,-2.22,3.07,-0.10,-0.06,0.04,37.56,23.56,24.50,Low,-0.13,0.56,-0.02,0.82,
20190207151436924,1,1376194,0.59,-8.86,4.15,0.05,0.03,0.10,-23.75,0.50,-43.25,Medium,-0.18,0.51,-0.81,0.22,
20190207151436958,2,1376224,-1.16,-2.72,8.49,-0.20,0.33,0.23,9.19,47.50,32.69,Medium,-0.27,0.18,-0.22,0.92,
20190207151436958,3,1376234,0.21,9.13,-3.71,-0.05,0.14,0.03,0.69,-45.25,-29.88,Medium,0.82,0.17,0.12,0.53,
20190207151436991,4,1376252,-8.85,-2.22,3.07,0.01,0.01,0.00,37.56,23.56,24.50,Low,-0.13,0.56,-0.02,0.82,
20190207151436991,1,1376284,0.56,-8.59,4.23,0.05,0.03,0.10,-23.75,0.50,-43.25,Medium,-0.18,0.51,-0.81,0.22,
20190207151436024,2,1376303,-1.16,-2.72,8.49,-0.13,0.14,0.01,9.19,47.50,32.69,Medium,-0.27,0.18,-0.22,0.92,
20190207151436058,3,1376341,0.21,9.13,-3.71,-0.05,0.14,0.03,18.38,-46.50,-22.44,Medium,0.82,0.17,0.12,0.53,
20190207151436091,4,1376372,-8.81,-2.22,3.18,0.01,0.01,0.00,37.56,23.56,24.50,Low,-0.13,0.56,-0.02,0.82,
20190207151436125,1,1376390,0.52,-8.98,4.27,0.05,0.03,0.10,-23.75,0.50,-43.25,Medium,-0.18,0.51,-0.81,0.22,
20190207151436159,2,1376419,-1.16,-2.72,8.49,-0.27,-0.61,-0.46,9.19,47.50,32.69,Medium,-0.27,0.18,-0.22,0.92,
20190207151436160,3,1376430,0.21,9.13,-3.71,-0.00,0.12,0.01,18.38,-46.50,-22.44,Medium,0.82,0.17,0.12,0.53,
20190207151436160,4,1376448,-8.81,-2.22,3.18,-0.04,0.01,0.02,37.56,23.56,24.50,Low,-0.13,0.56,-0.02,0.82,
20190207151436224,1,1376482,0.52,-8.98,4.27,0.05,0.03,0.10,-23.75,0.50,-43.25,Medium,-0.17,0.50,-0.82,0.22,
20190207151436224,2,1376502,-1.16,-2.72,8.49,-1.01,-1.41,-0.53,9.19,47.50,32.69,Medium,-0.27,0.18,-0.22,0.92,
20190207151436257,3,1376540,0.21,9.13,-3.71,-0.00,0.12,0.01,18.38,-45.88,-20.31,Medium,0.82,0.17,0.12,0.53,
20190207151436290,4,1376572,-8.81,-2.22,3.18,0.05,0.09,-0.02,37.56,23.56,24.50,Low,-0.13,0.56,-0.02,0.82,
20190207151437325,1,1376589,0.52,-8.98,4.27,-0.07,0.15,0.26,-23.75,0.50,-43.25,Medium,-0.17,0.50,-0.82,0.22,
20190207151437360,2,1376619,1.21,-1.99,4.27,-1.01,-1.41,-0.53,9.19,47.50,32.69,Medium,-0.27,0.18,-0.22,0.92,
20190207151437361,3,1376630,0.21,9.13,-3.71,0.84,1.91,0.50,18.38,-45.88,-20.31,Medium,0.82,0.17,0.12,0.53,
20190207151437361,4,1376647,-8.85,-2.18,2.87,0.05,0.09,-0.02,37.56,23.56,24.50,Low,-0.13,0.56,-0.02,0.82,
20190207151437392,1,1376681,0.52,-8.98,4.27,-0.27,0.24,0.17,-23.75,0.50,-43.25,Medium,-0.17,0.50,-0.82,0.22,
20190207151437428,2,1376702,1.21,-1.99,4.27,-3.50,-2.61,1.96,9.19,47.50,32.69,Medium,-0.27,0.18,-0.22,0.92,
20190207151437459,3,1376741,1.90,9.06,-4.28,0.84,1.91,0.50,18.38,-45.88,-20.31,Medium,0.82,0.17,0.12,0.53,
20190207151437493,4,1376772,-8.85,-2.18,2.87,-0.01,-0.07,0.09,37.56,23.56,24.50,Low,-0.13,0.56,-0.02,0.82,
20190207151437526,1,1376790,0.52,-8.98,4.27,-0.42,0.22,0.33,-23.75,0.50,-43.25,Medium,-0.17,0.50,-0.82,0.22,
20190207151437560,2,1376820,-1.62,-13.25,-1.74,-3.50,-2.61,1.96,9.19,47.50,32.69,Medium,-0.27,0.18,-0.22,0.92,
20190207151437561,3,1376829,2.13,8.79,-3.55,0.84,1.91,0.50,18.38,-45.88,-20.31,Medium,0.82,0.17,0.12,0.53,
20190207151437561,4,1376846,-8.89,-2.03,3.26,-0.01,-0.07,0.09,37.56,23.56,24.50,Low,-0.13,0.56,-0.02,0.82,
20190207151437591,1,1376878,0.52,-8.98,4.27,-0.01,0.43,0.56,-23.75,0.50,-43.25,Medium,-0.17,0.50,-0.82,0.22,
20190207151437628,2,1376899,-0.20,-11.61,1.98,-3.50,-2.61,1.96,9.19,47.50,32.69,Medium,-0.27,0.18,-0.22,0.92,
20190207151437660,3,1376940,2.40,8.60,-4.02,0.84,1.91,0.50,18.38,-45.88,-20.31,Medium,0.82,0.17,0.12,0.53,
20190207151437690,4,1376971,-8.89,-2.03,3.26,-0.12,-0.02,0.06,37.56,23.56,24.50,Low,-0.13,0.56,-0.02,0.82,
20190207151437725,1,1376990,0.52,-8.98,4.27,-2.58,1.05,0.40,-23.75,0.50,-43.25,Medium,-0.17,0.50,-0.82,0.22,
20190207151437758,2,1377019,-0.93,-10.11,5.00,-3.50,-2.61,1.96,9.19,47.50,32.69,Medium,-0.27,0.18,-0.22,0.92,
20190207151437758,3,1377029,2.59,8.75,-3.82,0.84,1.91,0.50,18.38,-45.88,-20.31,Medium,0.82,0.17,0.12,0.53,
20190207151437758,4,1377046,-8.77,-2.34,2.72,-0.12,-0.02,0.06,37.56,23.56,24.50,Low,-0.13,0.56,-0.02,0.82,
20190207151437791,1,1377078,-2.16,-8.06,0.28,-2.58,1.05,0.40,-23.75,0.50,-43.25,Medium,-0.17,0.50,-0.82,0.22,
20190207151437824,2,1377099,-0.93,-10.11,5.00,2.60,1.36,-1.32,9.19,47.50,32.69,Medium,-0.27,0.18,-0.22,0.92,
20190207151437858,3,1377139,2.29,8.94,-3.98,0.84,1.91,0.50,18.38,-45.88,-20.31,Medium,0.82,0.17,0.12,0.53,
20190207151437890,4,1377171,-8.77,-2.34,2.72,0.04,0.06,-0.02,37.56,23.56,24.50,Low,-0.13,0.56,-0.02,0.82,
20190207151437924,1,1377189,1.40,-10.36,-0.41,-2.58,1.05,0.40,-23.75,0.50,-43.25,Medium,-0.17,0.50,-0.82,0.22,
20190207151437959,2,1377219,-1.20,-5.55,7.34,2.60,1.36,-1.32,9.19,47.50,32.69,Medium,-0.27,0.18,-0.22,0.92,
20190207151437959,3,1377228,2.63,8.83,-3.59,0.84,1.91,0.50,18.38,-45.88,-20.31,Medium,0.82,0.17,0.12,0.53,
20190207151437960,4,1377246,-8.89,-1.95,3.14,0.04,0.06,-0.02,37.56,23.56,24.50,Low,-0.13,0.56,-0.02,0.82,
20190207151437991,1,1377281,0.40,-10.28,0.36,-2.58,1.05,0.40,-23.75,0.50,-43.25,Medium,-0.17,0.50,-0.82,0.22,
20190207151437025,2,1377302,-0.82,-6.43,6.11,2.60,1.36,-1.32,9.19,47.50,32.69,Medium,-0.27,0.18,-0.22,0.92,
20190207151437058,3,1377342,1.75,8.94,-3.79,0.84,1.91,0.50,18.38,-45.88,-20.31,Medium,0.82,0.17,0.12,0.53,
20190207151437091,4,1377375,-8.89,-1.95,3.14,-0.06,-0.03,0.01,37.56,23.56,24.50,Low,-0.13,0.56,-0.02,0.82,
20190207151437127,1,1377392,-1.55,-8.86,0.70,-2.58,1.05,0.40,-23.75,0.50,-43.25,Medium,-0.17,0.50,-0.82,0.22,
20190207151437158,2,1377425,-0.36,-8.31,5.73,2.60,1.36,-1.32,9.19,47.50,32.69,Medium,-0.27,0.18,-0.22,0.92,
20190207151437158,3,1377434,1.52,8.98,-3.55,0.84,1.91,0.50,18.38,-45.88,-20.31,Medium,0.82,0.17,0.12,0.53,
20190207151437191,4,1377452,-8.77,-2.07,2.84,-0.06,-0.03,0.01,37.56,23.56,24.50,Low,-0.13,0.56,-0.02,0.82,
20190207151437223,1,1377484,-1.55,-8.86,0.70,-0.29,0.03,-0.22,-23.75,0.50,-43.25,Medium,-0.17,0.50,-0.82,0.22,
20190207151437224,2,1377505,-0.51,-7.89,5.46,2.60,1.36,-1.32,9.19,47.50,32.69,Medium,-0.27,0.18,-0.22,0.92,
20190207151437260,3,1377546,2.36,8.87,-3.67,0.84,1.91,0.50,18.38,-45.88,-20.31,Medium,0.82,0.17,0.12,0.53,
20190207151437290,4,1377577,-8.77,-2.07,2.84,0.04,0.01,-0.00,37.56,23.56,24.50,Low,-0.13,0.56,-0.02,0.82,
20190207151438324,1,1377595,-1.55,-8.86,0.70,0.02,-0.10,0.04,-23.75,0.50,-43.25,Medium,-0.17,0.50,-0.82,0.22,
20190207151438361,2,1377625,-0.51,-7.89,5.46,-0.11,0.07,0.17,9.19,47.50,32.69,Medium,-0.27,0.18,-0.22,0.92,
20190207151438361,3,1377634,2.36,8.87,-3.67,-0.02,-0.19,0.05,18.38,-45.88,-20.31,Medium,0.82,0.17,0.12,0.53,
20190207151438361,4,1377652,-8.77,-2.07,2.84,0.03,0.02,0.01,37.56,23.56,24.50,Low,-0.13,0.56,-0.02,0.82,
20190207151438425,1,1377684,-0.25,-9.59,1.01,0.02,-0.10,0.04,-23.75,0.50,-43.25,Medium,-0.17,0.50,-0.82,0.22,
20190207151438425,2,1377704,-0.51,-7.89,5.46,-0.05,0.04,-0.05,9.19,47.50,32.69,Medium,-0.27,0.18,-0.22,0.92,
20190207151438461,3,1377746,2.32,8.75,-3.86,-0.02,-0.19,0.05,18.38,-45.88,-20.31,Medium,0.82,0.17,0.12,0.53,
20190207151438491,4,1377777,-8.96,-2.14,2.72,0.03,0.02,0.01,37.56,23.56,24.50,Low,-0.13,0.56,-0.02,0.82,
20190207151438525,1,1377795,-0.25,-9.59,1.01,-0.09,0.07,0.24,-23.75,0.50,-43.25,Medium,-0.17,0.50,-0.82,0.22,
20190207151438557,2,1377824,-0.51,-7.89,5.46,-0.22,-0.30,-0.72,9.19,47.50,32.69,Medium,-0.27,0.18,-0.22,0.92,
20190207151438557,3,1377834,2.32,8.75,-3.86,-0.06,-0.44,0.05,18.38,-45.88,-20.31,Medium,0.82,0.17,0.12,0.53,
20190207151438594,4,1377852,-8.96,-2.14,2.72,-0.02,0.01,0.01,37.56,23.56,24.50,Low,-0.13,0.56,-0.02,0.82,
20190207151438594,1,1377885,-0.25,-9.59,1.01,-0.16,0.09,0.52,-23.75,0.50,-43.25,Medium,-0.17,0.50,-0.82,0.22,
20190207151438624,2,1377905,-0.51,-7.89,5.46,-1.97,-1.15,-0.66,9.19,47.50,32.69,Medium,-0.27,0.18,-0.22,0.92,
20190207151438658,3,1377946,2.32,8.75,-3.86,-0.06,-0.44,0.05,18.38,-45.88,-20.31,Medium,0.80,0.22,0.24,0.50,
20190207151438691,4,1377977,-8.96,-2.14,2.61,-0.02,0.01,0.01,37.56,23.56,24.50,Low,-0.13,0.56,-0.02,0.82,
20190207151438725,1,1377996,-0.25,-9.59,1.01,-0.16,0.09,0.52,-23.75,0.50,-43.25,Medium,-0.08,0.68,-0.71,0.16,
20190207151438759,2,1378026,-0.51,-7.89,5.46,-1.75,-1.03,0.91,9.19,47.50,32.69,Medium,-0.27,0.18,-0.22,0.92,
20190207151438759,3,1378034,2.32,8.75,-3.86,-0.22,-0.77,-0.21,18.38,-45.88,-20.31,Medium,0.80,0.22,0.24,0.50,
20190207151438792,4,1378052,-8.96,-2.14,2.61,0.01,-0.09,-0.02,37.56,23.56,24.50,Low,-0.13,0.56,-0.02,0.82,
20190207151438825,1,1378085,-0.25,-9.59,1.01,0.19,-0.02,-0.08,-23.75,0.50,-43.25,Medium,-0.08,0.68,-0.71,0.16,
20190207151438825,2,1378105,-0.51,-7.89,5.46,0.37,0.09,0.89,9.19,47.50,32.69,Medium,-0.27,0.18,-0.22,0.92,
20190207151438858,3,1378145,1.25,8.94,-3.59,-0.22,-0.77,-0.21,18.38,-45.88,-20.31,Medium,0.80,0.22,0.24,0.50,
20190207151438891,4,1378178,-8.89,-2.07,2.87,0.01,-0.09,-0.02,37.56,23.56,24.50,Low,-0.13,0.56,-0.02,0.82,
20190207151438925,1,1378196,-0.25,-9.59,1.01,0.07,0.01,-0.08,-23.75,0.50,-43.25,Medium,-0.08,0.68,-0.71,0.16,
20190207151438959,2,1378226,-0.51,-7.89,5.46,0.14,0.11,0.34,9.19,47.50,32.69,Medium,-0.27,0.18,-0.22,0.92,
20190207151438959,3,1378234,1.25,8.94,-3.59,0.00,-0.21,-0.24,18.38,-45.88,-20.31,Medium,0.80,0.22,0.24,0.50,
20190207151438991,4,1378251,-8.89,-2.07,2.87,0.05,0.02,-0.04,37.56,23.56,24.50,Low,-0.13,0.56,-0.02,0.82,
20190207151438991,1,1378283,-0.79,-9.59,0.89,0.07,0.01,-0.08,-23.75,0.50,-43.25,Medium,-0.08,0.68,-0.71,0.16,
20190207151438025,2,1378305,-0.51,-7.89,5.46,0.00,-0.02,0.27,9.19,47.50,32.69,Medium,-0.27,0.18,-0.22,0.92,
20190207151438057,3,1378347,1.25,8.94,-3.59,0.00,-0.21,-0.24,18.38,-45.88,-20.31,Medium,0.81,0.20,0.14,0.54,
20190207151438090,4,1378379,-8.93,-2.11,2.84,0.05,0.02,-0.04,37.56,23.56,24.50,Low,-0.13,0.56,-0.02,0.82,
20190207151438126,1,1378398,-0.79,-9.59,0.89,0.05,0.00,-0.25,-23.75,0.50,-43.25,Medium,-0.08,0.68,-0.71,0.16,
20190207151438158,2,1378427,-0.51,-7.89,5.46,0.10,0.10,0.08,9.19,47.50,32.69,Medium,-0.27,0.18,-0.22,0.92,
20190207151438158,3,1378436,1.25,8.94,-3.59,-0.08,-0.43,-0.14,18.38,-45.88,-20.31,Medium,0.81,0.20,0.14,0.54,
20190207151438191,4,1378454,-8.93,-2.11,2.84,0.05,0.02,-0.04,38.06,24.38,21.81,Low,-0.13,0.56,-0.02,0.82,
20190207151438224,1,1378486,-0.79,-9.59,0.89,-0.01,0.01,-0.03,-23.75,0.50,-43.25,Medium,-0.08,0.68,-0.71,0.16,
20190207151438225,2,1378507,-0.51,-7.89,5.46,0.07,0.18,0.01,9.19,47.50,32.69,Medium,-0.27,0.18,-0.22,0.92,
20190207151438257,3,1378547,-0.89,9.25,-3.67,-0.08,-0.43,-0.14,18.38,-45.88,-20.31,Medium,0.81,0.20,0.14,0.54,
20190207151438290,4,1378579,-9.04,-2.26,2.72,0.05,0.02,-0.04,38.06,24.38,21.81,Low,-0.13,0.56,-0.02,0.82,
20190207151439324,1,1378597,-0.32,-9.78,0.70,-0.01,0.01,-0.03,-23.75,0.50,-43.25,Medium,-0.08,0.68,-0.71,0.16,
20190207151439356,2,1378627,-0.51,-7.89,5.46,0.31,0.20,-0.06,9.19,47.50,32.69,Medium,-0.27,0.18,-0.22,0.92,
20190207151439356,3,1378636,-1.05,9.25,-3.44,-0.08,-0.43,-0.14,18.38,-45.88,-20.31,Medium,0.81,0.20,0.14,0.54,
20190207151439392,4,1378654,-9.04,-2.26,2.72,0.04,0.00,-0.04,38.06,24.38,21.81,Low,-0.13,0.56,-0.02,0.82,
20190207151439424,1,1378688,-0.32,-9.78,0.70,0.51,-0.32,0.02,-23.75,0.50,-43.25,Medium,-0.08,0.68,-0.71,0.16,
20190207151439424,2,1378708,-0.51,-7.89,5.46,0.44,0.06,-0.08,9.19,47.50,32.69,Medium,-0.27,0.18,-0.22,0.92,
20190207151439457,3,1378747,-1.55,9.13,-3.25,-0.08,-0.43,-0.14,18.38,-45.88,-20.31,Medium,0.81,0.20,0.14,0.54,
20190207151439490,4,1378779,-8.93,-2.30,2.68,0.04,0.00,-0.04,38.06,24.38,21.81,Low,-0.13,0.56,-0.02,0.82,
20190207151439528,1,1378797,-0.21,-9.36,2.54,0.51,-0.32,0.02,-23.75,0.50,-43.25,Medium,-0.08,0.68,-0.71,0.16,
20190207151439558,2,1378826,-0.51,-7.89,5.46,0.15,0.17,-0.02,9.19,47.50,32.69,Medium,-0.27,0.18,-0.22,0.92,
20190207151439558,3,1378836,-0.36,9.59,-2.71,-0.08,-0.43,-0.14,18.38,-45.88,-20.31,Medium,0.81,0.20,0.14,0.54,
20190207151439591,4,1378853,-8.93,-2.30,2.68,0.01,-0.08,-0.03,38.06,24.38,21.81,Low,-0.13,0.56,-0.02,0.82,
20190207151439623,1,1378886,-0.02,-9.75,1.55,0.51,-0.32,0.02,-23.75,0.50,-43.25,Medium,-0.08,0.68,-0.71,0.16,
20190207151439623,2,1378906,-0.51,-7.89,5.46,0.16,0.28,0.24,9.19,47.50,32.69,Medium,-0.27,0.18,-0.22,0.92,
20190207151439658,3,1378946,-0.97,9.48,-2.45,-0.08,-0.43,-0.14,18.38,-45.88,-20.31,Medium,0.81,0.20,0.14,0.54,
20190207151439691,4,1378978,-8.85,-2.34,2.84,0.01,-0.08,-0.03,38.06,24.38,21.81,Low,-0.13,0.56,-0.02,0.82,
20190207151439727,1,1378997,-0.02,-9.75,1.55,-0.12,-0.03,0.01,-23.75,0.50,-43.25,Medium,-0.08,0.68,-0.71,0.16,
20190207151439761,2,1379028,-0.51,-7.89,5.46,0.31,0.20,0.22,9.19,47.50,32.69,Medium,-0.27,0.18,-0.22,0.92,
20190207151439761,3,1379037,-1.24,9.44,-2.48,-0.08,-0.43,-0.14,18.38,-45.88,-20.31,Medium,0.81,0.20,0.14,0.54,
20190207151439792,4,1379055,-8.85,-2.34,2.84,0.07,-0.05,-0.00,38.06,24.38,21.81,Low,-0.13,0.56,-0.02,0.82,
20190207151439824,1,1379087,-0.02,-9.75,1.55,0.15,-0.04,-0.00,-23.75,0.50,-43.25,Medium,-0.08,0.68,-0.71,0.16,
20190207151439825,2,1379107,-0.51,-7.89,5.46,0.16,0.12,0.21,9.19,47.50,32.69,Medium,-0.27,0.18,-0.22,0.92,
20190207151439859,3,1379147,-1.24,9.44,-2.48,0.13,-0.34,-0.03,18.38,-45.88,-20.31,Medium,0.81,0.20,0.14,0.54,
20190207151439893,4,1379179,-8.89,-2.34,2.84,0.07,-0.05,-0.00,38.06,24.38,21.81,Low,-0.13,0.56,-0.02,0.82,
20190207151439924,1,1379197,-0.02,-9.75,1.55,0.41,-0.05,-0.01,-23.75,0.50,-43.25,Medium,-0.08,0.68,-0.71,0.16,
20190207151439957,2,1379226,-0.51,-7.89,5.46,0.31,0.15,0.04,9.19,47.50,32.69,Medium,-0.27,0.18,-0.22,0.92,
20190207151439958,3,1379236,-1.77,9.40,-2.75,0.13,-0.34,-0.03,18.38,-45.88,-20.31,Medium,0.81,0.20,0.14,0.54,
20190207151439991,4,1379254,-8.89,-2.34,2.84,0.07,-0.05,-0.00,38.06,24.38,21.81,Low,-0.13,0.57,-0.02,0.81,
20190207151439023,1,1379287,-0.02,-9.75,1.55,-0.15,0.02,0.02,-23.75,0.50,-43.25,Medium,-0.08,0.68,-0.71,0.16,
20190207151439023,2,1379307,-0.51,-7.89,5.46,0.11,0.13,0.02,9.19,47.50,32.69,Medium,-0.27,0.18,-0.22,0.92,
20190207151439090,3,1379347,-1.81,9.32,-2.79,0.13,-0.34,-0.03,18.38,-45.88,-20.31,Medium,0.81,0.20,0.14,0.54,
20190207151439090,4,1379379,-8.89,-2.26,2.95,0.07,-0.05,-0.00,38.06,24.38,21.81,Low,-0.13,0.57,-0.02,0.81,
20190207151439125,1,1379396,-0.29,-9.59,2.62,-0.15,0.02,0.02,-23.75,0.50,-43.25,Medium,-0.08,0.68,-0.71,0.16,
20190207151439157,2,1379426,-2.27,-8.62,4.01,0.11,0.13,0.02,9.19,47.50,32.69,Medium,-0.27,0.18,-0.22,0.92,
20190207151439157,3,1379436,-2.00,9.32,-2.75,0.13,-0.34,-0.03,18.38,-45.88,-20.31,Medium,0.81,0.20,0.14,0.54,
20190207151439190,4,1379453,-8.89,-2.26,2.95,-0.02,0.00,0.01,38.06,24.38,21.81,Low,-0.13,0.57,-0.02,0.81,
20190207151439224,1,1379485,-0.29,-9.59,2.62,0.13,-0.11,-0.02,-23.75,0.50,-43.25,Medium,-0.08,0.68,-0.71,0.16,
20190207151439224,2,1379506,-2.27,-8.62,4.01,0.30,0.04,0.04,9.19,47.50,32.69,Medium,-0.27,0.18,-0.22,0.92,
20190207151439257,3,1379546,-1.93,9.32,-2.71,0.13,-0.34,-0.03,18.38,-45.88,-20.31,Medium,0.81,0.20,0.14,0.54,
20190207151439293,4,1379577,-8.81,-2.18,2.95,-0.02,0.00,0.01,38.06,24.38,21.81,Low,-0.13,0.57,-0.02,0.81,
20190207151440324,1,1379595,-0.29,-9.59,2.62,1.21,-0.36,0.01,-23.75,0.50,-43.25,Medium,-0.08,0.68,-0.71,0.16,
20190207151440359,2,1379625,-2.16,-8.58,3.93,0.30,0.04,0.04,9.19,47.50,32.69,Medium,-0.27,0.18,-0.22,0.92,
20190207151440359,3,1379634,-2.04,9.25,-2.67,0.13,-0.34,-0.03,18.38,-45.88,-20.31,Medium,0.81,0.20,0.14,0.54,
20190207151440390,4,1379652,-8.93,-2.14,2.95,-0.02,0.00,0.01,38.06,24.38,21.81,Low,-0.13,0.57,-0.02,0.81,
20190207151440424,1,1379684,-0.29,-9.59,2.62,4.29,-1.28,-0.21,-23.75,0.50,-43.25,Medium,-0.08,0.68,-0.71,0.16,
20190207151440424,2,1379704,-2.16,-8.58,3.93,0.19,0.01,0.00,9.19,47.50,32.69,Medium,-0.27,0.18,-0.22,0.92,
20190207151440457,3,1379744,-2.04,9.21,-2.71,0.13,-0.34,-0.03,18.38,-45.88,-20.31,Medium,0.81,0.20,0.14,0.54,
20190207151440490,4,1379776,-8.85,-2.26,2.91,-0.02,0.00,0.01,38.06,24.38,21.81,Low,-0.13,0.57,-0.02,0.81,
20190207151440524,1,1379796,2.17,-0.47,9.40,4.29,-1.28,-0.21,-23.75,0.50,-43.25,Medium,-0.08,0.68,-0.71,0.16,
20190207151440556,2,1379826,-2.08,-8.39,4.20,0.19,0.01,0.00,9.19,47.50,32.69,Medium,-0.27,0.18,-0.22,0.92,
20190207151440556,3,1379835,-2.04,9.21,-2.71,0.05,0.08,0.03,18.38,-45.88,-20.31,Medium,0.81,0.20,0.14,0.54,
20190207151440589,4,1379852,-9.04,-2.38,3.07,-0.02,0.00,0.01,38.06,24.38,21.81,Low,-0.13,0.57,-0.02,0.81,
20190207151440625,1,1379885,2.17,-0.47,9.40,2.31,-1.82,0.96,-23.75,0.50,-43.25,Medium,-0.08,0.68,-0.71,0.16,
20190207151440625,2,1379906,-2.08,-8.50,4.23,0.19,0.01,0.00,9.19,47.50,32.69,Medium,-0.27,0.18,-0.22,0.92,
20190207151440657,3,1379948,-2.04,9.21,-2.71,-0.02,0.10,0.04,18.38,-45.88,-20.31,Medium,0.81,0.20,0.14,0.54,
20190207151440690,4,1379979,-9.04,-2.38,3.07,-0.12,-0.03,0.03,38.06,24.38,21.81,Low,-0.13,0.57,-0.02,0.81,
20190207151440724,1,1379997,2.17,-0.47,9.40,0.06,-0.32,0.05,-23.75,0.50,-43.25,Medium,-0.08,0.68,-0.71,0.16,
20190207151440757,2,1380027,-2.27,-8.23,4.23,0.19,0.01,0.00,9.19,47.50,32.69,Medium,-0.27,0.18,-0.22,0.92,
20190207151440757,3,1380035,-2.04,9.21,-2.71,-0.10,0.22,0.06,18.38,-45.88,-20.31,Medium,0.81,0.20,0.14,0.54,
20190207151440790,4,1380054,-8.77,-2.30,3.10,-0.12,-0.03,0.03,38.06,24.38,21.81,Low,-0.13,0.57,-0.02,0.81,
20190207151440824,1,1380086,2.17,-0.47,9.40,-0.71,-0.05,-0.17,-23.75,0.50,-43.25,Medium,-0.08,0.68,-0.71,0.16,
20190207151440824,2,1380106,-2.27,-8.23,4.23,-0.02,-0.19,-0.02,9.19,47.50,32.69,Medium,-0.27,0.18,-0.22,0.92,
20190207151440861,3,1380147,-1.70,9.25,-2.44,-0.10,0.22,0.06,18.38,-45.88,-20.31,Medium,0.81,0.20,0.14,0.54,
20190207151440890,4,1380179,-8.81,-2.30,2.99,-0.12,-0.03,0.03,38.06,24.38,21.81,Low,-0.13,0.57,-0.02,0.81,
20190207151440923,1,1380199,2.17,-0.47,9.40,0.22,-0.38,0.05,-23.75,0.50,-43.25,Medium,-0.08,0.68,-0.71,0.16,
20190207151440956,2,1380229,-1.73,-8.16,4.39,-0.02,-0.19,-0.02,9.19,47.50,32.69,Medium,-0.27,0.18,-0.22,0.92,
20190207151440956,3,1380238,-1.70,9.25,-2.44,-0.10,0.22,0.06,18.38,-45.88,-20.31,Medium,0.79,0.03,-0.08,0.60,
20190207151440991,4,1380255,-8.81,-2.30,2.99,-0.15,-0.03,0.03,38.06,24.38,21.81,Low,-0.13,0.57,-0.02,0.81,
20190207151440023,1,1380289,2.17,-0.47,9.40,0.16,-0.23,0.15,-23.75,0.50,-43.25,Medium,-0.08,0.68,-0.71,0.16,
20190207151440023,2,1380309,-1.58,-8.39,4.27,-0.02,-0.19,-0.02,9.19,47.50,32.69,Medium,-0.27,0.18,-0.22,0.92,
20190207151440090,3,1380349,-1.66,9.55,-2.44,-0.10,0.22,0.06,18.38,-45.88,-20.31,Medium,0.79,0.03,-0.08,0.60,
20190207151440091,4,1380380,-8.77,-2.41,3.03,-0.15,-0.03,0.03,38.06,24.38,21.81,Low,-0.13,0.57,-0.02,0.81,
20190207151440124,1,1380398,2.17,-0.47,9.40,-0.07,-0.08,-0.08,-23.75,0.50,-43.25,Medium,-0.08,0.68,-0.71,0.16,
20190207151440157,2,1380427,-1.58,-8.39,4.27,-0.03,-0.07,0.12,9.19,47.50,32.69,Medium,-0.27,0.18,-0.22,0.92,
20190207151440157,3,1380437,-1.62,9.55,-2.33,-0.10,0.22,0.06,18.38,-45.88,-20.31,Medium,0.79,0.03,-0.08,0.60,
20190207151440191,4,1380454,-8.77,-2.41,3.03,-0.05,-0.00,-0.01,38.06,24.38,21.81,Low,-0.13,0.57,-0.02,0.81,
20190207151440226,1,1380486,2.17,-0.47,9.40,-0.23,0.14,0.06,-23.75,0.50,-43.25,Medium,-0.08,0.68,-0.71,0.16,
20190207151440226,2,1380506,-1.58,-8.39,4.27,-0.11,-0.01,0.13,9.19,47.50,32.69,Medium,-0.27,0.18,-0.22,0.92,
20190207151440260,3,1380548,-1.13,9.40,-2.44,-0.10,0.22,0.06,18.38,-45.88,-20.31,Medium,0.79,0.03,-0.08,0.60,
20190207151440290,4,1380581,-8.77,-2.30,2.87,-0.05,-0.00,-0.01,38.06,24.38,21.81,Low,-0.13,0.57,-0.02,0.81,
20190207151441324,1,1380598,2.17,-0.47,9.40,-3.63,1.00,-0.63,-23.75,0.50,-43.25,Medium,-0.08,0.68,-0.71,0.16,
20190207151441357,2,1380628,-1.58,-8.39,4.27,-0.11,-0.01,0.13,-7.69,47.69,35.94,High,-0.27,0.18,-0.22,0.92,
20190207151441357,3,1380638,-1.09,9.44,-2.21,-0.10,0.22,0.06,18.38,-45.88,-20.31,Medium,0.79,0.03,-0.08,0.60,
20190207151441390,4,1380655,-8.77,-2.30,2.87,0.05,-0.07,-0.03,38.06,24.38,21.81,Low,-0.13,0.57,-0.02,0.81,
20190207151441425,1,1380688,4.85,-5.49,4.19,-3.63,1.00,-0.63,-23.75,0.50,-43.25,Medium,-0.08,0.68,-0.71,0.16,
20190207151441425,2,1380707,-1.58,-8.39,4.27,-0.11,-0.01,0.13,-6.63,48.00,36.75,High,-0.27,0.18,-0.22,0.92,
20190207151441457,3,1380748,-0.97,9.52,-2.41,-0.10,0.22,0.06,18.38,-45.88,-20.31,Medium,0.79,0.03,-0.08,0.60,
20190207151441490,4,1380779,-8.77,-2.30,2.87,0.05,-0.07,-0.03,37.56,24.69,23.19,Low,-0.13,0.57,-0.02,0.81,
20190207151441523,1,1380797,4.85,-5.49,4.19,0.50,-1.11,-0.83,-23.75,0.50,-43.25,Medium,-0.08,0.68,-0.71,0.16,
20190207151441560,2,1380826,-2.50,-8.20,4.12,-0.11,-0.01,0.13,-6.63,48.00,36.75,High,-0.27,0.18,-0.22,0.92,
20190207151441560,3,1380836,-0.51,9.29,-2.44,-0.10,0.22,0.06,18.38,-45.88,-20.31,Medium,0.79,0.03,-0.08,0.60,
20190207151441595,4,1380853,-8.77,-2.30,2.87,-0.26,-0.02,0.17,37.56,24.69,23.19,Low,-0.13,0.57,-0.02,0.81,
20190207151441623,1,1380887,4.85,-5.49,4.19,-0.49,-1.19,-0.67,-23.75,0.50,-43.25,Medium,-0.08,0.68,-0.71,0.16,
20190207151441623,2,1380907,-2.50,-8.27,4.46,-0.11,-0.01,0.13,-6.63,48.00,36.75,High,-0.27,0.18,-0.22,0.92,
20190207151441660,3,1380948,-0.97,9.36,-2.33,-0.10,0.22,0.06,18.38,-45.88,-20.31,Medium,0.79,0.03,-0.08,0.60,
20190207151441690,4,1380980,-8.85,-2.38,2.87,-0.26,-0.02,0.17,37.56,24.69,23.19,Low,-0.13,0.57,-0.02,0.81,
20190207151441723,1,1380998,4.85,-5.49,4.19,-1.17,-0.65,-0.63,-23.75,0.50,-43.25,Medium,-0.08,0.68,-0.71,0.16,
20190207151441757,2,1381028,-2.50,-8.31,4.50,-0.11,-0.01,0.13,-6.63,48.00,36.75,High,-0.27,0.18,-0.22,0.92,
20190207151441757,3,1381037,-0.97,9.36,-2.33,-0.10,0.22,0.06,18.38,-45.88,-20.31,Medium,0.80,0.00,-0.09,0.59,
20190207151441790,4,1381054,-8.85,-2.38,2.87,-0.16,0.06,0.20,37.56,24.69,23.19,Low,-0.13,0.57,-0.02,0.81,
20190207151441824,1,1381087,6.46,-6.45,5.95,-1.17,-0.65,-0.63,-23.75,0.50,-43.25,Medium,-0.08,0.68,-0.71,0.16,
20190207151441824,2,1381107,-2.54,-7.81,4.12,-0.11,-0.01,0.13,-6.63,48.00,36.75,High,-0.27,0.18,-0.22,0.92,
20190207151441890,3,1381149,-1.62,9.32,-3.09,-0.10,0.22,0.06,18.38,-45.88,-20.31,Medium,0.80,0.00,-0.09,0.59,
20190207151441890,4,1381180,-8.85,-2.34,3.26,-0.16,0.06,0.20,37.56,24.69,23.19,Low,-0.13,0.57,-0.02,0.81,
20190207151441924,1,1381199,6.46,-6.45,5.95,0.01,-0.24,-0.16,-23.75,0.50,-43.25,Medium,-0.08,0.68,-0.71,0.16,
20190207151441957,2,1381228,-3.04,-8.00,4.35,-0.11,-0.01,0.13,-6.63,48.00,36.75,High,-0.27,0.18,-0.22,0.92,
20190207151441957,3,1381238,-2.50,9.21,-3.52,-0.10,0.22,0.06,18.38,-45.88,-20.31,Medium,0.80,0.00,-0.09,0.59,
20190207151441990,4,1381255,-9.00,-1.84,2.87,-0.16,0.06,0.20,37.56,24.69,23.19,Low,-0.13,0.57,-0.02,0.81,
20190207151441024,1,1381287,7.80,-4.54,4.04,0.01,-0.24,-0.16,-23.75,0.50,-43.25,Medium,-0.08,0.68,-0.71,0.16,
20190207151441024,2,1381308,-3.15,-8.00,4.70,-0.11,-0.01,0.13,-6.63,48.00,36.75,High,-0.27,0.18,-0.22,0.92,
20190207151441058,3,1381348,-2.35,9.06,-3.79,-0.10,0.22,0.06,18.38,-45.88,-20.31,Medium,0.80,0.00,-0.09,0.59,
20190207151441091,4,1381379,-8.96,-1.99,2.91,-0.16,0.06,0.20,37.56,24.69,23.19,Low,-0.13,0.57,-0.02,0.81,
20190207151441124,1,1381399,7.80,-4.54,4.04,-0.19,-0.03,0.15,-23.75,0.50,-43.25,Medium,-0.08,0.68,-0.71,0.16,
20190207151441160,2,1381429,-3.38,-7.81,4.39,-0.11,-0.01,0.13,-6.63,48.00,36.75,High,-0.27,0.18,-0.22,0.92,
20190207151441160,3,1381438,-2.46,9.21,-3.94,-0.10,0.22,0.06,18.38,-45.88,-20.31,Medium,0.80,0.00,-0.09,0.59,
20190207151441190,4,1381455,-8.96,-1.99,2.91,-0.05,-0.05,0.03,37.56,24.69,23.19,Low,-0.13,0.57,-0.02,0.81,
20190207151441224,1,1381489,7.80,-4.54,4.04,0.18,-0.07,0.11,-23.75,0.50,-43.25,Medium,-0.08,0.68,-0.71,0.16,
20190207151441224,2,1381509,-3.65,-7.81,4.54,-0.11,-0.01,0.13,-6.63,48.00,36.75,High,-0.27,0.18,-0.22,0.92,
20190207151441259,3,1381549,-2.54,8.91,-3.71,-0.10,0.22,0.06,18.38,-45.88,-20.31,Medium,0.80,0.00,-0.09,0.59,
20190207151441290,4,1381580,-9.04,-1.80,2.61,-0.05,-0.05,0.03,37.56,24.69,23.19,Low,-0.13,0.57,-0.02,0.81,
20190207151442323,1,1381597,7.80,-4.54,4.04,0.21,-0.07,0.01,-23.75,0.50,-43.25,Medium,-0.08,0.68,-0.71,0.16,
20190207151442358,2,1381627,-3.61,-7.24,4.54,-0.11,-0.01,0.13,-6.63,48.00,36.75,High,-0.27,0.18,-0.22,0.92,
20190207151442358,3,1381637,-2.43,8.91,-3.75,-0.10,0.22,0.06,18.38,-45.88,-20.31,Medium,0.80,0.00,-0.09,0.59,
20190207151442390,4,1381655,-9.04,-1.80,2.61,0.06,0.02,-0.05,37.56,24.69,23.19,Low,-0.13,0.57,-0.02,0.81,
20190207151442425,1,1381688,7.80,-4.54,4.04,0.90,-0.11,0.13,-23.75,0.50,-43.25,Medium,-0.08,0.68,-0.71,0.16,
20190207151442425,2,1381708,-3.92,-7.62,4.66,-0.11,-0.01,0.13,-6.63,48.00,36.75,High,-0.27,0.18,-0.22,0.92,
20190207151442457,3,1381748,-2.04,8.98,-3.55,-0.10,0.22,0.06,18.38,-45.88,-20.31,Medium,0.80,0.00,-0.09,0.59,
20190207151442490,4,1381780,-9.08,-1.65,2.68,0.06,0.02,-0.05,37.56,24.69,23.19,Low,-0.13,0.57,-0.02,0.81,
20190207151442527,1,1381797,7.80,-3.00,5.26,0.90,-0.11,0.13,-23.75,0.50,-43.25,Medium,-0.08,0.68,-0.71,0.16,
20190207151442559,2,1381827,-3.96,-7.35,4.73,-0.11,-0.01,0.13,-6.63,48.00,36.75,High,-0.27,0.18,-0.22,0.92,
20190207151442559,3,1381836,-2.31,8.87,-3.59,-0.10,0.22,0.06,18.38,-45.88,-20.31,Medium,0.80,0.00,-0.09,0.59,
20190207151442590,4,1381853,-9.08,-1.65,2.68,-0.08,-0.05,-0.02,37.56,24.69,23.19,Low,-0.13,0.57,-0.02,0.81,
20190207151442624,1,1381886,7.80,-3.00,5.26,1.00,1.00,0.78,-23.75,0.50,-43.25,Medium,-0.08,0.68,-0.71,0.16,
20190207151442624,2,1381906,-4.15,-7.58,4.62,-0.11,-0.01,0.13,-6.63,48.00,36.75,High,-0.27,0.18,-0.22,0.92,
20190207151442656,3,1381946,-2.39,8.87,-3.63,-0.10,0.22,0.06,18.38,-45.88,-20.31,Medium,0.80,0.00,-0.09,0.59,
20190207151442689,4,1381977,-9.12,-1.72,2.64,-0.08,-0.05,-0.02,37.56,24.69,23.19,Low,-0.13,0.57,-0.02,0.81,
20190207151442724,1,1381995,5.57,-3.65,4.96,1.00,1.00,0.78,-23.75,0.50,-43.25,Medium,-0.08,0.68,-0.71,0.16,
20190207151442757,2,1382025,-3.54,-7.70,4.39,-0.11,-0.01,0.13,-6.63,48.00,36.75,High,-0.27,0.18,-0.22,0.92,
20190207151442757,3,1382034,-1.74,9.06,-3.75,-0.10,0.22,0.06,18.38,-45.88,-20.31,Medium,0.80,0.00,-0.09,0.59,
20190207151442790,4,1382052,-8.93,-1.88,2.80,-0.08,-0.05,-0.02,37.56,24.69,23.19,Low,-0.13,0.57,-0.02,0.81,
20190207151442823,1,1382085,6.04,-3.65,5.30,1.00,1.00,0.78,-23.75,0.50,-43.25,Medium,-0.08,0.68,-0.71,0.16,
20190207151442823,2,1382105,-3.23,-8.04,4.39,-0.11,-0.01,0.13,-6.63,48.00,36.75,High,-0.27,0.18,-0.22,0.92,
20190207151442858,3,1382145,-1.55,9.06,-3.52,-0.10,0.22,0.06,18.38,-45.88,-20.31,Medium,0.80,0.00,-0.09,0.59,
20190207151442890,4,1382178,-8.93,-1.88,2.80,0.10,0.09,-0.21,37.56,24.69,23.19,Low,-0.13,0.57,-0.02,0.81,
20190207151442923,1,1382196,5.88,-3.43,6.57,1.00,1.00,0.78,-23.75,0.50,-43.25,Medium,-0.08,0.68,-0.71,0.16,
20190207151442958,2,1382226,-3.23,-8.04,4.39,-0.14,0.15,-0.27,-6.63,48.00,36.75,High,-0.27,0.18,-0.22,0.92,
20190207151442958,3,1382234,-1.55,9.06,-3.52,-0.11,0.03,0.17,18.38,-45.88,-20.31,Medium,0.80,0.00,-0.09,0.59,
20190207151442992,4,1382251,-8.93,-1.88,2.80,0.10,0.09,-0.21,41.69,22.13,31.06,Low,-0.13,0.57,-0.02,0.81,
20190207151442023,1,1382284,5.92,-2.54,7.21,1.00,1.00,0.78,-23.75,0.50,-43.25,Medium,-0.08,0.68,-0.71,0.16,
20190207151442024,2,1382304,-2.66,-8.43,4.31,-0.14,0.15,-0.27,-6.63,48.00,36.75,High,-0.27,0.18,-0.22,0.92,
20190207151442057,3,1382345,-1.55,9.06,-3.52,-0.14,-0.08,0.18,18.38,-45.88,-20.31,Medium,0.80,0.00,-0.09,0.59,
20190207151442091,4,1382376,-8.93,-1.88,2.80,0.10,0.09,-0.21,41.69,22.13,31.06,Low,-0.19,0.58,0.02,0.79,
20190207151442124,1,1382394,5.38,-2.12,7.37,1.00,1.00,0.78,-23.75,0.50,-43.25,Medium,-0.08,0.68,-0.71,0.16,
20190207151442156,2,1382423,-2.66,-8.43,4.31,0.05,0.19,-0.35,-6.63,48.00,36.75,High,-0.27,0.18,-0.22,0.92,
20190207151442156,3,1382432,-1.55,9.06,-3.52,-0.26,-0.02,0.15,18.38,-45.88,-20.31,Medium,0.80,0.00,-0.09,0.59,
20190207151442190,4,1382449,-8.66,-3.03,2.99,0.10,0.09,-0.21,41.69,22.13,31.06,Low,-0.19,0.58,0.02,0.79,
20190207151442191,1,1382481,5.42,-1.05,7.71,1.00,1.00,0.78,-23.75,0.50,-43.25,Medium,-0.08,0.68,-0.71,0.16,
20190207151442224,2,1382501,-2.66,-8.43,4.31,0.08,0.03,-0.30,-6.63,48.00,36.75,High,-0.27,0.18,-0.22,0.92,
20190207151442259,3,1382541,-1.55,9.06,-3.52,-0.05,0.10,0.14,18.38,-45.88,-20.31,Medium,0.80,0.00,-0.09,0.59,
20190207151442290,4,1382573,-8.66,-3.03,2.99,-0.04,-0.20,0.00,41.69,22.13,31.06,Low,-0.19,0.58,0.02,0.79,
20190207151443324,1,1382591,5.42,-1.05,7.71,2.81,-0.71,0.13,-23.75,0.50,-43.25,Medium,-0.08,0.68,-0.71,0.16,
20190207151443358,2,1382621,-2.66,-8.43,4.31,0.04,-0.28,-0.29,-6.63,48.00,36.75,High,-0.27,0.18,-0.22,0.92,
20190207151443358,3,1382630,0.14,9.55,-1.68,-0.05,0.10,0.14,18.38,-45.88,-20.31,Medium,0.80,0.00,-0.09,0.59,
20190207151443359,4,1382648,-7.66,-3.60,2.68,-0.04,-0.20,0.00,41.69,22.13,31.06,Low,-0.19,0.58,0.02,0.79,
20190207151443394,1,1382681,5.42,-1.05,7.71,2.35,-0.53,0.32,-23.75,0.50,-43.25,Medium,-0.08,0.68,-0.71,0.16,
20190207151443428,2,1382702,-2.66,-8.43,4.31,-0.01,-0.41,-0.19,-6.63,48.00,36.75,High,-0.27,0.18,-0.22,0.92,
20190207151443457,3,1382743,0.33,9.32,-1.98,-0.05,0.10,0.14,18.38,-45.88,-20.31,Medium,0.80,0.00,-0.09,0.59,
20190207151443493,4,1382774,-7.66,-2.68,2.64,-0.04,-0.20,0.00,41.69,22.13,31.06,Low,-0.19,0.58,0.02,0.79,
20190207151443524,1,1382792,5.42,-1.05,7.71,0.43,0.30,0.23,-23.75,0.50,-43.25,Medium,-0.08,0.68,-0.71,0.16,
20190207151443557,2,1382821,-1.62,-8.69,4.50,-0.01,-0.41,-0.19,-6.63,48.00,36.75,High,-0.27,0.18,-0.22,0.92,
20190207151443557,3,1382832,0.14,9.36,-2.71,-0.05,0.10,0.14,18.38,-45.88,-20.31,Medium,0.80,0.00,-0.09,0.59,
20190207151443595,4,1382850,-7.66,-2.68,2.64,-0.20,-0.26,0.31,41.69,22.13,31.06,Low,-0.19,0.58,0.02,0.79,
20190207151443595,1,1382883,5.42,-1.05,7.71,0.04,0.34,0.04,-23.75,0.50,-43.25,Medium,-0.08,0.68,-0.71,0.16,
20190207151443624,2,1382902,-1.62,-8.69,4.50,0.50,-0.08,0.04,-6.63,48.00,36.75,High,-0.27,0.18,-0.22,0.92,
20190207151443657,3,1382942,0.14,9.36,-2.71,0.25,0.18,-0.09,18.38,-45.88,-20.31,Medium,0.80,0.00,-0.09,0.59,
20190207151443691,4,1382974,-8.81,-1.49,2.72,-0.20,-0.26,0.31,41.69,22.13,31.06,Low,-0.19,0.58,0.02,0.79,
20190207151443725,1,1382992,5.42,-1.05,7.71,-3.41,1.29,-0.19,-23.75,0.50,-43.25,Medium,-0.08,0.68,-0.71,0.16,
20190207151443758,2,1383021,-1.70,-7.47,5.04,0.50,-0.08,0.04,-6.63,48.00,36.75,High,-0.27,0.18,-0.22,0.92,
20190207151443758,3,1383031,-0.47,8.64,-3.90,0.25,0.18,-0.09,18.38,-45.88,-20.31,Medium,0.80,0.00,-0.09,0.59,
20190207151443758,4,1383049,-8.50,-1.38,3.48,-0.20,-0.26,0.31,41.69,22.13,31.06,Low,-0.19,0.58,0.02,0.79,
20190207151443793,1,1383083,5.42,-1.05,7.71,-11.21,4.09,0.67,-23.75,0.50,-43.25,Medium,-0.08,0.68,-0.71,0.16,
20190207151443824,2,1383105,-1.70,-7.47,5.04,0.05,-0.23,0.02,-6.63,48.00,36.75,High,-0.27,0.18,-0.22,0.92,
20190207151443857,3,1383145,-0.47,8.64,-3.90,0.20,0.09,-0.14,18.38,-45.88,-20.31,Medium,0.80,0.00,-0.09,0.59,
20190207151443891,4,1383176,-8.50,-1.38,3.48,0.04,-0.28,-0.01,41.69,22.13,31.06,Low,-0.19,0.58,0.02,0.79,
20190207151443924,1,1383195,5.42,-1.05,7.71,-6.53,3.42,0.43,-23.75,0.50,-43.25,Medium,-0.08,0.68,-0.71,0.16,
20190207151443957,2,1383225,-1.47,-8.04,5.61,0.05,-0.23,0.02,-6.63,48.00,36.75,High,-0.27,0.18,-0.22,0.92,
20190207151443957,3,1383234,-1.32,9.13,-4.28,0.20,0.09,-0.14,18.38,-45.88,-20.31,Medium,0.80,0.00,-0.09,0.59,
20190207151443993,4,1383252,-8.50,-1.38,3.48,0.04,-0.03,-0.04,41.69,22.13,31.06,Low,-0.19,0.58,0.02,0.79,
20190207151443024,1,1383284,5.42,-1.05,7.71,3.68,-1.54,-0.43,-23.75,0.50,-43.25,Medium,-0.08,0.68,-0.71,0.16,
20190207151443024,2,1383305,-1.47,-8.04,5.61,0.07,0.01,-0.11,-6.63,48.00,36.75,High,-0.27,0.18,-0.22,0.92,
20190207151443057,3,1383345,-1.32,9.13,-4.28,0.20,0.09,-0.14,18.38,-45.88,-20.31,Medium,0.84,0.03,-0.03,0.55,
20190207151443090,4,1383376,-8.50,-1.38,3.48,0.06,0.05,0.02,41.69,22.13,31.06,Low,-0.19,0.58,0.02,0.79,
20190207151443124,1,1383395,5.42,-1.05,7.71,10.46,-3.59,-1.24,-23.75,0.50,-43.25,Medium,-0.08,0.68,-0.71,0.16,
20190207151443157,2,1383424,-1.47,-8.04,5.61,0.17,0.11,-0.09,-6.63,48.00,36.75,High,-0.27,0.18,-0.22,0.92,
20190207151443157,3,1383435,-1.32,9.13,-4.28,0.06,-0.10,-0.04,18.38,-45.88,-20.31,Medium,0.84,0.03,-0.03,0.55,
20190207151443192,4,1383452,-8.73,-1.95,3.71,0.06,0.05,0.02,41.69,22.13,31.06,Low,-0.19,0.58,0.02,0.79,
20190207151443226,1,1383485,5.42,-1.05,7.71,5.22,-1.50,0.19,-23.75,0.50,-43.25,Medium,-0.08,0.68,-0.71,0.16,
20190207151443227,2,1383506,-1.47,-8.04,5.61,0.10,0.05,-0.05,-6.63,48.00,36.75,High,-0.27,0.18,-0.22,0.92,
20190207151443260,3,1383545,-1.32,9.13,-4.28,-0.04,0.03,0.03,18.38,-45.88,-20.31,Medium,0.84,0.03,-0.03,0.55,
20190207151443290,4,1383578,-8.73,-1.95,3.71,-0.11,0.02,-0.08,41.69,22.13,31.06,Low,-0.19,0.58,0.02,0.79,
20190207151444323,1,1383597,5.42,-1.05,7.71,0.74,-0.19,0.20,-23.75,0.50,-43.25,Medium,-0.08,0.68,-0.71,0.16,
20190207151444360,2,1383627,-1.47,-8.04,5.61,0.04,-0.04,0.00,-6.63,48.00,36.75,High,-0.27,0.18,-0.22,0.92,
20190207151444360,3,1383637,-1.32,9.13,-4.28,-0.03,-0.01,0.02,18.38,-45.88,-20.31,Medium,0.84,0.03,-0.03,0.55,
20190207151444390,4,1383654,-9.16,-2.53,3.07,-0.11,0.02,-0.08,41.69,22.13,31.06,Low,-0.19,0.58,0.02,0.79,
20190207151444423,1,1383689,5.42,-1.05,7.71,-0.71,0.07,-0.16,-23.75,0.50,-43.25,Medium,-0.08,0.68,-0.71,0.16,
20190207151444423,2,1383710,-1.47,-8.04,5.61,-0.06,-0.04,-0.02,-6.63,48.00,36.75,High,-0.27,0.18,-0.22,0.92,
20190207151444457,3,1383747,-1.32,9.13,-4.28,-0.08,0.07,0.04,18.38,-45.88,-20.31,Medium,0.84,0.03,-0.03,0.55,
20190207151444490,4,1383779,-9.16,-2.53,3.07,-0.01,-0.07,-0.06,41.69,22.13,31.06,Low,-0.19,0.58,0.02,0.79,
20190207151444523,1,1383797,6.19,0.91,7.60,-0.71,0.07,-0.16,-23.75,0.50,-43.25,Medium,-0.08,0.68,-0.71,0.16,
20190207151444557,2,1383827,-1.47,-8.04,5.61,-0.03,-0.07,-0.00,-6.63,48.00,36.75,High,-0.27,0.18,-0.22,0.92,
20190207151444557,3,1383839,-0.20,9.13,-3.79,-0.08,0.07,0.04,18.38,-45.88,-20.31,Medium,0.84,0.03,-0.03,0.55,
20190207151444589,4,1383856,-8.81,-2.49,3.37,-0.01,-0.07,-0.06,41.69,22.13,31.06,Low,-0.19,0.58,0.02,0.79,
20190207151444624,1,1383891,4.81,-3.50,6.57,-0.71,0.07,-0.16,-23.75,0.50,-43.25,Medium,-0.08,0.68,-0.71,0.16,
20190207151444624,2,1383911,-1.47,-8.16,5.20,-0.03,-0.07,-0.00,-6.63,48.00,36.75,High,-0.27,0.18,-0.22,0.92,
20190207151444657,3,1383949,-0.24,9.06,-3.79,-0.08,0.07,0.04,18.38,-45.88,-20.31,Medium,0.84,0.03,-0.03,0.55,
20190207151444693,4,1383981,-8.81,-2.49,3.37,-0.01,-0.07,-0.06,41.69,22.13,31.06,Low,-0.18,0.53,0.06,0.82,
20190207151444727,1,1383999,1.17,-9.67,2.24,-0.71,0.07,-0.16,-23.75,0.50,-43.25,Medium,-0.08,0.68,-0.71,0.16,
20190207151444756,2,1384029,-1.43,-8.04,5.35,-0.03,-0.07,-0.00,-6.63,48.00,36.75,High,-0.27,0.18,-0.22,0.92,
20190207151444756,3,1384041,-0.13,9.06,-3.75,-0.08,0.07,0.04,18.38,-45.88,-20.31,Medium,0.84,0.03,-0.03,0.55,
20190207151444790,4,1384058,-8.81,-2.49,3.37,-0.11,-0.02,-0.06,41.69,22.13,31.06,Low,-0.18,0.53,0.06,0.82,
20190207151444823,1,1384091,2.24,-9.02,3.73,-0.71,0.07,-0.16,-23.75,0.50,-43.25,Medium,-0.08,0.68,-0.71,0.16,
20190207151444823,2,1384111,-1.39,-7.96,5.46,-0.03,-0.07,-0.00,-6.63,48.00,36.75,High,-0.27,0.18,-0.22,0.92,
20190207151444890,3,1384148,-0.24,9.17,-3.90,-0.08,0.07,0.04,18.38,-45.88,-20.31,Medium,0.84,0.03,-0.03,0.55,
20190207151444890,4,1384180,-8.62,-2.57,3.68,-0.11,-0.02,-0.06,41.69,22.13,31.06,Low,-0.18,0.53,0.06,0.82,
20190207151444923,1,1384198,2.63,-7.83,4.77,-0.71,0.07,-0.16,-23.75,0.50,-43.25,Medium,-0.08,0.68,-0.71,0.16,
20190207151444956,2,1384229,-1.20,-8.16,5.27,-0.03,-0.07,-0.00,-6.63,48.00,36.75,High,-0.27,0.18,-0.22,0.92,
20190207151444957,3,1384241,-0.39,9.13,-3.71,-0.08,0.07,0.04,18.38,-45.88,-20.31,Medium,0.84,0.03,-0.03,0.55,
20190207151444991,4,1384259,-8.62,-2.57,3.68,0.09,-0.01,-0.04,41.69,22.13,31.06,Low,-0.18,0.53,0.06,0.82,
20190207151444023,1,1384292,2.93,-7.83,5.00,-0.71,0.07,-0.16,-23.75,0.50,-43.25,Medium,-0.08,0.68,-0.71,0.16,
20190207151444023,2,1384311,-1.28,-8.27,5.20,-0.03,-0.07,-0.00,-6.63,48.00,36.75,High,-0.27,0.18,-0.22,0.92,
20190207151444093,3,1384350,-0.24,9.10,-3.75,-0.08,0.07,0.04,18.38,-45.88,-20.31,Medium,0.84,0.03,-0.03,0.55,
20190207151444093,4,1384383,-8.54,-2.38,3.68,0.09,-0.01,-0.04,41.69,22.13,31.06,Low,-0.18,0.53,0.06,0.82,
20190207151444123,1,1384400,2.93,-8.06,5.03,-0.71,0.07,-0.16,-23.75,0.50,-43.25,Medium,-0.08,0.68,-0.71,0.16,
20190207151444156,2,1384432,-1.36,-8.13,5.27,-0.03,-0.07,-0.00,-6.63,48.00,36.75,High,-0.27,0.18,-0.22,0.92,
20190207151444156,3,1384445,-0.05,9.13,-3.82,-0.08,0.07,0.04,18.38,-45.88,-20.31,Medium,0.84,0.03,-0.03,0.55,
20190207151444190,4,1384462,-8.54,-2.38,3.68,0.05,0.02,0.00,41.69,22.13,31.06,Low,-0.18,0.53,0.06,0.82,
20190207151444223,1,1384496,2.70,-7.95,5.07,-0.71,0.07,-0.16,-23.75,0.50,-43.25,Medium,-0.08,0.68,-0.71,0.16,
20190207151444223,2,1384516,-1.39,-8.13,5.08,-0.03,-0.07,-0.00,-6.63,48.00,36.75,High,-0.27,0.18,-0.22,0.92,
20190207151444291,3,1384554,-0.13,9.10,-3.79,-0.08,0.07,0.04,18.38,-45.88,-20.31,Medium,0.84,0.03,-0.03,0.55,
20190207151445325,4,1384585,-8.50,-2.38,3.71,0.05,0.02,0.00,41.69,22.13,31.06,Low,-0.18,0.53,0.06,0.82,
20190207151445325,1,1384603,2.93,-8.56,5.07,-0.71,0.07,-0.16,-23.75,0.50,-43.25,Medium,-0.08,0.68,-0.71,0.16,
20190207151445358,2,1384633,-1.43,-8.43,5.23,-0.03,-0.07,-0.00,-6.63,48.00,36.75,High,-0.27,0.18,-0.22,0.92,
20190207151445359,3,1384643,-0.13,9.10,-3.79,0.06,0.04,0.11,18.38,-45.88,-20.31,Medium,0.84,0.03,-0.03,0.55,
20190207151445393,4,1384661,-8.58,-2.41,3.33,0.05,0.02,0.00,41.69,22.13,31.06,Low,-0.18,0.53,0.06,0.82,
20190207151445427,1,1384694,2.93,-8.56,5.07,-0.35,-0.07,1.50,-23.75,0.50,-43.25,Medium,-0.08,0.68,-0.71,0.16,
20190207151445427,2,1384713,-1.43,-8.43,5.23,-0.10,-0.06,-0.50,-6.63,48.00,36.75,High,-0.27,0.18,-0.22,0.92,
20190207151445492,3,1384751,-0.13,9.10,-3.79,0.17,0.13,0.42,18.38,-45.88,-20.31,Medium,0.84,0.03,-0.03,0.55,
20190207151445492,4,1384783,-8.62,-2.72,3.60,0.05,0.02,0.00,41.69,22.13,31.06,Low,-0.18,0.53,0.06,0.82,
20190207151445528,1,1384801,-0.71,-7.83,4.38,-0.35,-0.07,1.50,-23.75,0.50,-43.25,Medium,-0.08,0.68,-0.71,0.16,
20190207151445557,2,1384832,-1.43,-8.43,5.23,-0.72,0.04,-1.05,-6.63,48.00,36.75,High,-0.27,0.18,-0.22,0.92,
20190207151445557,3,1384842,0.21,9.10,-4.02,0.17,0.13,0.42,18.38,-45.88,-20.31,Medium,0.84,0.03,-0.03,0.55,
20190207151445593,4,1384861,-8.70,-2.41,3.37,0.05,0.02,0.00,41.69,22.13,31.06,Low,-0.18,0.53,0.06,0.82,
20190207151445624,1,1384894,-0.71,-7.83,4.38,-2.30,1.11,1.66,-23.75,0.50,-43.25,Medium,-0.08,0.68,-0.71,0.16,
20190207151445624,2,1384913,1.37,-9.70,3.74,-0.72,0.04,-1.05,-6.63,48.00,36.75,High,-0.27,0.18,-0.22,0.92,
20190207151445690,3,1384951,0.33,8.91,-4.05,0.17,0.13,0.42,18.38,-45.88,-20.31,Medium,0.84,0.03,-0.03,0.55,
20190207151445726,4,1384982,-8.58,-2.45,3.37,0.05,0.02,0.00,41.69,22.13,31.06,Low,-0.18,0.53,0.06,0.82,
20190207151445726,1,1385002,-0.71,-7.83,4.38,-1.41,1.17,0.01,-23.75,0.50,-43.25,Medium,-0.08,0.68,-0.71,0.16,
20190207151445757,2,1385032,1.86,-8.89,3.55,-0.72,0.04,-1.05,-6.63,48.00,36.75,High,-0.27,0.18,-0.22,0.92,
20190207151445757,3,1385043,1.37,8.68,-4.32,0.17,0.13,0.42,18.38,-45.88,-20.31,Medium,0.84,0.03,-0.03,0.55,
20190207151445791,4,1385062,-8.50,-2.26,3.52,0.05,0.02,0.00,41.69,22.13,31.06,Low,-0.18,0.53,0.06,0.82,
20190207151445824,1,1385095,1.52,-9.82,-0.37,-1.41,1.17,0.01,-23.75,0.50,-43.25,Medium,-0.08,0.68,-0.71,0.16,
20190207151445824,2,1385115,1.75,-7.51,2.55,-0.72,0.04,-1.05,-6.63,48.00,36.75,High,-0.27,0.18,-0.22,0.92,
20190207151445893,3,1385152,2.71,8.41,-4.36,0.17,0.13,0.42,18.38,-45.88,-20.31,Medium,0.84,0.03,-0.03,0.55,
20190207151445923,4,1385185,-8.54,-2.72,3.60,0.05,0.02,0.00,41.69,22.13,31.06,Low,-0.18,0.53,0.06,0.82,
20190207151445924,1,1385204,1.52,-9.82,-0.37,0.47,-0.91,0.01,-23.75,0.50,-43.25,Medium,-0.08,0.68,-0.71,0.16,
20190207151445957,2,1385236,-0.24,-8.32,1.48,-0.72,0.04,-1.05,-6.63,48.00,36.75,High,-0.27,0.18,-0.22,0.92,
20190207151445957,3,1385246,2.59,8.48,-4.36,0.17,0.13,0.42,18.38,-45.88,-20.31,Medium,0.84,0.03,-0.03,0.55,
20190207151445991,4,1385263,-8.39,-2.80,3.64,0.05,0.02,0.00,41.69,22.13,31.06,Low,-0.18,0.53,0.06,0.82,
20190207151445023,1,1385296,1.52,-9.82,-0.37,0.28,-0.84,-0.35,-23.75,0.50,-43.25,Medium,-0.08,0.68,-0.71,0.16,
20190207151445023,2,1385315,-0.24,-8.32,1.48,1.32,1.01,0.68,-6.63,48.00,36.75,High,-0.27,0.18,-0.22,0.92,
20190207151445090,3,1385352,1.33,8.45,-4.70,0.17,0.13,0.42,18.38,-45.88,-20.31,Medium,0.84,0.03,-0.03,0.55,
20190207151445124,4,1385384,-8.50,-1.99,3.79,0.05,0.02,0.00,41.69,22.13,31.06,Low,-0.18,0.53,0.06,0.82,
20190207151445124,1,1385402,1.52,-9.82,-0.37,0.86,-0.43,-0.61,-23.75,0.50,-43.25,Medium,-0.08,0.68,-0.71,0.16,
20190207151445158,2,1385436,-0.24,-8.32,1.48,2.28,0.89,0.27,-6.63,48.00,36.75,High,-0.27,0.18,-0.22,0.92,
20190207151445158,3,1385448,1.71,8.52,-5.09,0.17,0.13,0.42,18.38,-45.88,-20.31,Medium,0.84,0.03,-0.03,0.55,
20190207151445191,4,1385466,-8.70,-2.14,3.52,0.05,0.02,0.00,41.69,22.13,31.06,Low,-0.18,0.53,0.06,0.82,
20190207151445224,1,1385498,1.52,-9.82,-0.37,3.59,-1.53,-0.94,-23.75,0.50,-43.25,Medium,-0.08,0.68,-0.71,0.16,
20190207151445261,2,1385517,-0.24,-8.32,1.48,2.17,0.73,0.14,-6.63,48.00,36.75,High,-0.27,0.18,-0.22,0.92,
20190207151445291,3,1385554,0.64,8.83,-5.05,0.17,0.13,0.42,18.38,-45.88,-20.31,Medium,0.84,0.03,-0.03,0.55,
20190207151446325,4,1385585,-8.31,-2.14,3.68,0.05,0.02,0.00,41.69,22.13,31.06,Low,-0.18,0.53,0.06,0.82,
20190207151446325,1,1385604,2.78,-1.51,7.10,3.59,-1.53,-0.94,-23.75,0.50,-43.25,Medium,-0.08,0.68,-0.71,0.16,
20190207151446361,2,1385636,-0.89,-5.45,8.49,2.17,0.73,0.14,-6.63,48.00,36.75,High,-0.27,0.18,-0.22,0.92,
20190207151446361,3,1385648,0.98,8.52,-4.40,0.17,0.13,0.42,18.38,-45.88,-20.31,Medium,0.84,0.03,-0.03,0.55,
20190207151446392,4,1385665,-8.43,-2.14,3.71,0.05,0.02,0.00,41.69,22.13,31.06,Low,-0.18,0.53,0.06,0.82,
20190207151446424,1,1385699,2.78,-1.51,7.10,2.31,-1.40,-0.40,-23.75,0.50,-43.25,Medium,-0.08,0.68,-0.71,0.16,
20190207151446456,2,1385716,-0.89,-5.45,8.49,0.67,0.03,0.09,-6.63,48.00,36.75,High,-0.27,0.18,-0.22,0.92,
20190207151446492,3,1385755,-0.13,8.68,-4.63,0.17,0.13,0.42,18.38,-45.88,-20.31,Medium,0.84,0.03,-0.03,0.55,
20190207151446524,4,1385786,-8.43,-2.14,3.71,0.05,0.02,0.00,41.63,19.81,31.25,Low,-0.18,0.53,0.06,0.82,
20190207151446524,1,1385804,2.78,-1.51,7.10,-0.84,-0.07,0.27,-23.75,0.50,-43.25,Medium,-0.08,0.68,-0.71,0.16,
20190207151446559,2,1385838,-0.89,-5.45,8.49,-0.55,-0.28,0.20,-6.63,48.00,36.75,High,-0.27,0.18,-0.22,0.92,
20190207151446559,3,1385849,-0.36,8.91,-4.55,0.17,0.13,0.42,18.38,-45.88,-20.31,Medium,0.84,0.03,-0.03,0.55,
20190207151446591,4,1385867,-8.54,-2.68,3.64,0.05,0.02,0.00,41.63,19.81,31.25,Low,-0.18,0.53,0.06,0.82,
20190207151446623,1,1385901,2.78,-1.51,7.10,-0.81,0.08,-0.21,-23.75,0.50,-43.25,Medium,-0.08,0.68,-0.71,0.16,
20190207151446660,2,1385919,-0.89,-5.45,8.49,-0.29,-0.13,0.28,-6.63,48.00,36.75,High,-0.27,0.18,-0.22,0.92,
20190207151446691,3,1385957,-0.36,8.91,-4.55,-0.04,0.07,-0.10,18.38,-45.88,-20.31,Medium,0.84,0.03,-0.03,0.55,
20190207151446723,4,1385990,-8.62,-2.53,3.45,0.05,0.02,0.00,41.63,19.81,31.25,Low,-0.18,0.53,0.06,0.82,
20190207151446723,1,1386007,5.15,-1.97,7.79,-0.81,0.08,-0.21,-23.75,0.50,-43.25,Medium,-0.08,0.68,-0.71,0.16,
20190207151446757,2,1386040,-0.89,-5.45,8.49,-0.17,-0.04,0.16,-6.63,48.00,36.75,High,-0.27,0.18,-0.22,0.92,
20190207151446792,3,1386052,-0.59,8.83,-4.40,-0.04,0.07,-0.10,18.38,-45.88,-20.31,Medium,0.84,0.03,-0.03,0.55,
20190207151446792,4,1386069,-8.62,-2.53,3.45,-0.02,0.07,0.01,41.63,19.81,31.25,Low,-0.18,0.53,0.06,0.82,
20190207151446826,1,1386102,4.73,-1.97,8.40,-0.81,0.08,-0.21,-23.75,0.50,-43.25,Medium,-0.08,0.68,-0.71,0.16,
20190207151446860,2,1386121,-0.89,-5.45,8.49,-0.24,-0.10,0.12,-6.63,48.00,36.75,High,-0.27,0.18,-0.22,0.92,
20190207151446895,3,1386160,-0.39,8.83,-4.28,-0.04,0.07,-0.10,18.38,-45.88,-20.31,Medium,0.84,0.03,-0.03,0.55,
20190207151446923,4,1386191,-8.62,-2.53,3.45,0.00,0.10,-0.01,41.63,19.81,31.25,Low,-0.18,0.53,0.06,0.82,
20190207151446923,1,1386209,4.73,-1.97,8.40,-0.31,-0.19,-0.18,-23.75,0.50,-43.25,Medium,-0.08,0.68,-0.71,0.16,
20190207151446962,2,1386243,-0.89,-5.45,8.49,-0.10,-0.01,0.03,-6.63,48.00,36.75,High,-0.27,0.18,-0.22,0.92,
20190207151446991,3,1386255,-0.17,8.75,-4.47,-0.04,0.07,-0.10,18.38,-45.88,-20.31,Medium,0.84,0.03,-0.03,0.55,
20190207151446991,4,1386273,-8.62,-2.53,3.45,-0.07,0.04,0.02,41.63,19.81,31.25,Low,-0.18,0.53,0.06,0.82,
20190207151446023,1,1386305,4.77,-1.97,8.29,-0.31,-0.19,-0.18,-23.75,0.50,-43.25,Medium,-0.08,0.68,-0.71,0.16,
20190207151446060,2,1386323,-0.89,-5.45,8.49,-0.04,-0.04,0.03,-6.63,48.00,36.75,High,-0.27,0.18,-0.22,0.92,
20190207151446091,3,1386361,-0.09,8.64,-4.36,-0.04,0.07,-0.10,18.38,-45.88,-20.31,Medium,0.84,0.03,-0.03,0.55,
20190207151446123,4,1386393,-8.62,-2.53,3.45,-0.07,0.04,0.02,41.63,19.81,31.25,Low,-0.21,0.53,0.09,0.82,
20190207151446123,1,1386411,4.77,-1.97,8.29,-0.71,-0.04,-0.28,-23.75,0.50,-43.25,Medium,-0.08,0.68,-0.71,0.16,
20190207151446157,2,1386444,-0.89,-5.45,8.49,-0.16,-0.17,0.22,-6.63,48.00,36.75,High,-0.27,0.18,-0.22,0.92,
20190207151446191,3,1386455,-0.09,8.64,-4.36,0.06,-0.08,-0.07,18.38,-45.88,-20.31,Medium,0.84,0.03,-0.03,0.55,
20190207151446191,4,1386472,-8.66,-2.38,3.41,-0.07,0.04,0.02,41.63,19.81,31.25,Low,-0.21,0.53,0.09,0.82,
20190207151446223,1,1386505,5.08,-2.81,7.91,-0.71,-0.04,-0.28,-23.75,0.50,-43.25,Medium,-0.08,0.68,-0.71,0.16,
20190207151446259,2,1386523,-0.74,-5.87,7.57,-0.16,-0.17,0.22,-6.63,48.00,36.75,High,-0.27,0.18,-0.22,0.92,
20190207151446292,3,1386561,-0.09,8.64,-4.36,0.04,-0.02,-0.12,18.38,-45.88,-20.31,Medium,0.84,0.03,-0.03,0.55,
20190207151447326,4,1386593,-8.62,-2.53,3.33,-0.07,0.04,0.02,41.63,19.81,31.25,Low,-0.21,0.53,0.09,0.82,
20190207151447326,1,1386611,5.42,-2.20,7.83,-0.71,-0.04,-0.28,-23.75,0.50,-43.25,Medium,-0.08,0.68,-0.71,0.16,
20190207151447357,2,1386644,-0.66,-6.09,7.34,-0.16,-0.17,0.22,-6.63,48.00,36.75,High,-0.27,0.18,-0.22,0.92,
20190207151447393,3,1386654,-0.09,8.64,-4.36,0.03,-0.03,-0.13,18.38,-45.88,-20.31,Medium,0.84,0.03,-0.03,0.55,
20190207151447394,4,1386674,-8.62,-2.53,3.33,-0.33,0.06,0.14,41.63,19.81,31.25,Low,-0.21,0.53,0.09,0.82,
20190207151447428,1,1386708,5.42,-2.20,7.83,-0.71,-0.04,-0.28,-44.38,-33.19,-9.13,Medium,-0.08,0.68,-0.71,0.16,
20190207151447457,2,1386725,-0.74,-6.21,7.49,-0.16,-0.17,0.22,-6.63,48.00,36.75,High,-0.27,0.18,-0.22,0.92,
20190207151447491,3,1386763,-0.89,8.60,-4.28,0.03,-0.03,-0.13,18.38,-45.88,-20.31,Medium,0.84,0.03,-0.03,0.55,
20190207151447523,4,1386796,-9.12,-2.41,2.61,-0.33,0.06,0.14,41.63,19.81,31.25,Low,-0.21,0.53,0.09,0.82,
20190207151447524,1,1386814,6.84,-2.66,7.10,-0.71,-0.04,-0.28,-44.38,-33.19,-9.13,Medium,-0.08,0.68,-0.71,0.16,
20190207151447557,2,1386847,-0.70,-6.09,7.38,-0.16,-0.17,0.22,-6.63,48.00,36.75,High,-0.27,0.18,-0.22,0.92,
20190207151447595,3,1386859,-0.89,8.60,-4.28,-0.03,-0.04,-0.31,18.38,-45.88,-20.31,Medium,0.84,0.03,-0.03,0.55,
20190207151447595,4,1386876,-8.81,-2.03,2.87,-0.33,0.06,0.14,41.63,19.81,31.25,Low,-0.21,0.53,0.09,0.82,
20190207151447623,1,1386909,6.84,-2.66,7.10,-0.12,-0.11,0.15,-44.38,-33.19,-9.13,Medium,-0.08,0.68,-0.71,0.16,
20190207151447656,2,1386926,-0.93,-6.36,7.34,-0.16,-0.17,0.22,-6.63,48.00,36.75,High,-0.27,0.18,-0.22,0.92,
20190207151447690,3,1386965,-0.89,8.60,-4.28,0.06,-0.09,-0.09,18.38,-45.88,-20.31,Medium,0.84,0.03,-0.03,0.55,
20190207151447728,4,1386997,-9.04,-1.91,2.38,-0.33,0.06,0.14,41.63,19.81,31.25,Low,-0.21,0.53,0.09,0.82,
20190207151447728,1,1387015,6.30,-2.93,7.41,-0.12,-0.11,0.15,-44.38,-33.19,-9.13,Medium,-0.08,0.68,-0.71,0.16,
20190207151447790,2,1387048,-0.93,-6.36,7.34,0.06,0.11,-0.00,-6.63,48.00,36.75,High,-0.27,0.18,-0.22,0.92,
20190207151447791,3,1387060,-1.97,8.64,-4.43,0.06,-0.09,-0.09,18.38,-45.88,-20.31,Medium,0.84,0.03,-0.03,0.55,
20190207151447791,4,1387078,-9.16,-1.84,2.38,-0.33,0.06,0.14,41.63,19.81,31.25,Low,-0.21,0.53,0.09,0.82,
20190207151447825,1,1387110,6.30,-2.93,7.41,-0.01,-0.01,0.04,-44.38,-33.19,-9.13,Medium,-0.08,0.68,-0.71,0.16,
20190207151447860,2,1387127,-1.70,-6.29,7.23,0.06,0.11,-0.00,-6.63,48.00,36.75,High,-0.27,0.18,-0.22,0.92,
20190207151447894,3,1387165,-1.97,8.64,-4.43,0.09,-0.16,0.02,18.38,-45.88,-20.31,Medium,0.84,0.03,-0.03,0.55,
20190207151447927,4,1387197,-9.08,-1.80,2.53,-0.33,0.06,0.14,41.63,19.81,31.25,Low,-0.21,0.53,0.09,0.82,
20190207151447927,1,1387215,6.30,-2.93,7.41,-0.01,-0.01,0.04,-46.38,-30.94,-7.81,Medium,-0.08,0.68,-0.71,0.16,
20190207151447992,2,1387248,-1.70,-6.29,7.23,0.06,0.10,-0.12,-6.63,48.00,36.75,High,-0.27,0.18,-0.22,0.92,
20190207151447992,3,1387261,-1.77,8.52,-4.66,0.09,-0.16,0.02,18.38,-45.88,-20.31,Medium,0.84,0.03,-0.03,0.55,
20190207151447992,4,1387278,-9.04,-1.88,2.49,-0.33,0.06,0.14,41.63,19.81,31.25,Low,-0.21,0.53,0.09,0.82,
20190207151447023,1,1387310,6.30,-2.93,7.41,-0.04,0.06,-0.03,-46.38,-30.94,-7.81,Medium,-0.08,0.68,-0.71,0.16,
20190207151447058,2,1387328,-1.77,-6.17,7.30,0.06,0.10,-0.12,-6.63,48.00,36.75,High,-0.27,0.18,-0.22,0.92,
20190207151447090,3,1387366,-1.77,8.52,-4.66,0.12,-0.06,0.07,18.38,-45.88,-20.31,Medium,0.84,0.03,-0.03,0.55,
20190207151447124,4,1387397,-9.08,-1.80,2.64,-0.33,0.06,0.14,41.63,19.81,31.25,Low,-0.21,0.53,0.09,0.82,
20190207151447124,1,1387415,5.73,-3.04,7.02,-0.04,0.06,-0.03,-46.38,-30.94,-7.81,Medium,-0.08,0.68,-0.71,0.16,
20190207151447192,2,1387448,-1.77,-6.17,7.30,0.05,0.01,-0.02,-6.63,48.00,36.75,High,-0.27,0.18,-0.22,0.92,
20190207151447192,3,1387460,-1.39,8.41,-4.86,0.12,-0.06,0.07,18.38,-45.88,-20.31,Medium,0.84,0.03,-0.03,0.55,
20190207151447192,4,1387478,-9.12,-1.80,2.68,-0.33,0.06,0.14,41.63,19.81,31.25,Low,-0.21,0.53,0.09,0.82,
20190207151447226,1,1387511,5.73,-3.04,7.02,-0.01,-0.03,-0.03,-46.38,-30.94,-7.81,Medium,-0.08,0.68,-0.71,0.16,
20190207151447257,2,1387528,-1.77,-6.17,7.30,0.02,-0.03,0.01,-6.63,48.00,36.75,High,-0.27,0.18,-0.22,0.92,
20190207151447291,3,1387567,-1.39,8.45,-4.86,0.12,-0.06,0.07,18.38,-45.88,-20.31,Medium,0.84,0.03,-0.03,0.55,
20190207151448323,4,1387598,-9.12,-1.80,2.68,-0.04,0.01,0.00,41.63,19.81,31.25,Low,-0.21,0.53,0.09,0.82,
20190207151448359,1,1387616,6.00,-2.85,7.33,-0.01,-0.03,-0.03,-46.38,-30.94,-7.81,Medium,-0.08,0.68,-0.71,0.16,
20190207151448359,2,1387648,-1.47,-5.98,7.27,0.02,-0.03,0.01,-6.63,48.00,36.75,High,-0.27,0.18,-0.22,0.92,
20190207151448393,3,1387660,-1.43,8.52,-4.86,0.12,-0.06,0.07,18.38,-45.88,-20.31,Medium,0.84,0.03,-0.03,0.55,
20190207151448393,4,1387677,-9.04,-1.99,2.76,-0.04,0.01,0.00,41.63,19.81,31.25,Low,-0.21,0.53,0.09,0.82,
20190207151448424,1,1387709,6.00,-2.85,7.33,-0.06,0.09,0.02,-46.38,-30.94,-7.81,Medium,-0.08,0.68,-0.71,0.16,
20190207151448457,2,1387727,-1.32,-6.21,7.46,0.02,-0.03,0.01,-6.63,48.00,36.75,High,-0.27,0.18,-0.22,0.92,
20190207151448492,3,1387765,-1.24,8.45,-4.74,0.12,-0.06,0.07,18.38,-45.88,-20.31,Medium,0.84,0.03,-0.03,0.55,
20190207151448529,4,1387796,-9.08,-2.07,2.49,-0.04,0.01,0.00,41.63,19.81,31.25,Low,-0.21,0.53,0.09,0.82,
20190207151448529,1,1387815,5.73,-2.46,6.64,-0.06,0.09,0.02,-46.38,-30.94,-7.81,Medium,-0.08,0.68,-0.71,0.16,
20190207151448557,2,1387849,-1.32,-6.21,7.46,-0.01,-0.09,-0.04,-6.63,48.00,36.75,High,-0.27,0.18,-0.22,0.92,
20190207151448592,3,1387861,-1.74,8.71,-4.66,0.12,-0.06,0.07,18.38,-45.88,-20.31,Medium,0.84,0.03,-0.03,0.55,
20190207151448592,4,1387878,-9.08,-2.07,2.49,-0.04,0.01,0.00,47.44,15.56,43.56,Low,-0.21,0.53,0.09,0.82,
20190207151448624,1,1387911,5.73,-2.46,6.64,-0.06,0.09,0.02,-46.31,-29.88,-9.81,Medium,-0.08,0.68,-0.71,0.16,
20190207151448657,2,1387929,-1.20,-6.28,7.45,-0.01,-0.09,-0.04,-6.63,48.00,36.75,High,-0.27,0.18,-0.22,0.92,
20190207151448691,3,1387966,-1.74,8.71,-4.66,0.08,0.42,-0.04,18.38,-45.88,-20.31,Medium,0.84,0.03,-0.03,0.55,
20190207151448727,4,1387999,-8.89,-1.88,2.76,-0.04,0.01,0.00,47.44,15.56,43.56,Low,-0.21,0.53,0.09,0.82,
20190207151448727,1,1388018,5.88,-2.43,6.34,-0.06,0.09,0.02,-46.31,-29.88,-9.81,Medium,-0.08,0.68,-0.71,0.16,
20190207151448761,2,1388050,-1.32,-5.86,7.60,-0.01,-0.09,-0.04,-6.63,48.00,36.75,High,-0.27,0.18,-0.22,0.92,
20190207151448791,3,1388062,-1.13,8.48,-5.05,0.08,0.42,-0.04,18.38,-45.88,-20.31,Medium,0.84,0.03,-0.03,0.55,
20190207151448792,4,1388079,-8.96,-1.80,2.80,-0.04,0.01,0.00,47.44,15.56,43.56,Low,-0.21,0.53,0.09,0.82,
20190207151448828,1,1388112,5.88,-2.43,6.34,-0.54,0.29,0.17,-46.31,-29.88,-9.81,Medium,-0.08,0.68,-0.71,0.16,
20190207151448859,2,1388130,-1.24,-5.90,7.79,-0.01,-0.09,-0.04,-6.63,48.00,36.75,High,-0.27,0.18,-0.22,0.92,
20190207151448892,3,1388168,-1.01,8.25,-5.09,0.08,0.42,-0.04,18.38,-45.88,-20.31,Medium,0.84,0.03,-0.03,0.55,
20190207151448925,4,1388199,-9.04,-1.91,2.53,-0.04,0.01,0.00,47.44,15.56,43.56,Low,-0.21,0.53,0.09,0.82,
20190207151448925,1,1388217,6.15,-5.49,6.57,-0.54,0.29,0.17,-46.31,-29.88,-9.81,Medium,-0.08,0.68,-0.71,0.16,
20190207151448991,2,1388250,-1.24,-5.90,7.79,-2.33,-0.82,-0.51,-6.63,48.00,36.75,High,-0.27,0.18,-0.22,0.92,
20190207151448992,3,1388262,-0.59,8.56,-5.20,0.08,0.42,-0.04,18.38,-45.88,-20.31,Medium,0.84,0.03,-0.03,0.55,
20190207151448992,4,1388279,-8.70,-2.11,2.95,-0.04,0.01,0.00,47.44,15.56,43.56,Low,-0.21,0.53,0.09,0.82,
20190207151448024,1,1388313,6.15,-5.49,6.57,-0.57,0.77,1.83,-46.31,-29.88,-9.81,Medium,-0.08,0.68,-0.71,0.16,
20190207151448059,2,1388331,-1.24,-5.90,7.79,-3.24,-1.17,-0.61,-6.63,48.00,36.75,High,-0.27,0.18,-0.22,0.92,
20190207151448093,3,1388370,-0.78,8.68,-4.93,0.08,0.42,-0.04,18.38,-45.88,-20.31,Medium,0.84,0.03,-0.03,0.55,
20190207151448125,4,1388401,-8.89,-1.99,3.03,-0.04,0.01,0.00,47.44,15.56,43.56,Low,-0.21,0.53,0.09,0.82,
20190207151448158,1,1388419,-1.59,-7.87,3.50,-0.57,0.77,1.83,-46.31,-29.88,-9.81,Medium,-0.08,0.68,-0.71,0.16,
20190207151448191,2,1388452,0.29,-8.62,3.31,-3.24,-1.17,-0.61,-6.63,48.00,36.75,High,-0.27,0.18,-0.22,0.92,
20190207151448191,3,1388464,-0.70,8.60,-4.74,0.08,0.42,-0.04,18.38,-45.88,-20.31,Medium,0.84,0.03,-0.03,0.55,
20190207151448191,4,1388482,-8.81,-1.99,3.10,-0.04,0.01,0.00,47.44,15.56,43.56,Low,-0.21,0.53,0.09,0.82,
20190207151448229,1,1388516,-1.59,-7.87,3.50,-2.34,0.92,1.24,-46.31,-29.88,-9.81,Medium,-0.08,0.68,-0.71,0.16,
20190207151448257,2,1388533,0.29,-8.62,3.31,2.37,2.10,0.38,-6.63,48.00,36.75,High,-0.27,0.18,-0.22,0.92,
20190207151448292,3,1388571,-0.66,8.52,-5.01,0.08,0.42,-0.04,18.38,-45.88,-20.31,Medium,0.84,0.03,-0.03,0.55,
20190207151449326,4,1388604,-8.81,-1.99,3.10,0.27,0.14,-0.13,47.44,15.56,43.56,Low,-0.21,0.53,0.09,0.82,
20190207151449358,1,1388621,0.56,-9.97,3.54,-2.34,0.92,1.24,-46.31,-29.88,-9.81,Medium,-0.08,0.68,-0.71,0.16,
20190207151449391,2,1388654,0.29,-8.62,3.31,-1.42,-0.77,-1.16,-6.63,48.00,36.75,High,-0.27,0.18,-0.22,0.92,
20190207151449392,3,1388664,-0.66,8.52,-5.01,0.11,-0.15,0.28,18.38,-45.88,-20.31,Medium,0.84,0.03,-0.03,0.55,
20190207151449392,4,1388682,-8.81,-1.99,3.10,0.19,0.00,-0.10,47.44,15.56,43.56,Low,-0.21,0.53,0.09,0.82,
20190207151449424,1,1388714,-2.74,-7.91,1.16,-2.34,0.92,1.24,-46.31,-29.88,-9.81,Medium,-0.08,0.68,-0.71,0.16,
20190207151449462,2,1388731,0.29,-8.62,3.31,0.08,-0.62,0.04,-6.63,48.00,36.75,High,-0.27,0.18,-0.22,0.92,
20190207151449492,3,1388770,0.33,8.68,-5.66,0.11,-0.15,0.28,18.38,-45.88,-20.31,Medium,0.84,0.03,-0.03,0.55,
20190207151449524,4,1388802,-8.81,-1.99,3.10,0.06,-0.17,0.05,47.44,15.56,43.56,Low,-0.21,0.53,0.09,0.82,
20190207151449557,1,1388820,-4.88,-10.09,1.63,-2.34,0.92,1.24,-46.31,-29.88,-9.81,Medium,-0.08,0.68,-0.71,0.16,
20190207151449591,2,1388853,0.29,-8.62,3.31,1.93,1.40,0.16,-6.63,48.00,36.75,High,-0.27,0.18,-0.22,0.92,
20190207151449591,3,1388864,0.33,8.68,-5.66,0.09,0.72,-0.02,18.38,-45.88,-20.31,Medium,0.84,0.03,-0.03,0.55,
20190207151449591,4,1388882,-8.81,-1.99,3.10,0.15,0.08,-0.06,47.44,15.56,43.56,Low,-0.21,0.53,0.09,0.82,
20190207151449628,1,1388914,-4.88,-10.09,1.63,0.09,0.52,-0.24,-46.31,-29.88,-9.81,Medium,-0.08,0.68,-0.71,0.16,
20190207151449657,2,1388932,0.29,-8.62,3.31,-0.35,0.24,-0.14,-6.63,48.00,36.75,High,-0.27,0.18,-0.22,0.92,
20190207151449692,3,1388970,2.36,7.45,-6.31,0.09,0.72,-0.02,18.38,-45.88,-20.31,Medium,0.84,0.03,-0.03,0.55,
20190207151449724,4,1389002,-8.81,-1.99,3.10,0.09,0.04,0.04,47.44,15.56,43.56,Low,-0.21,0.53,0.09,0.82,
20190207151449757,1,1389019,-3.62,-9.75,1.43,0.09,0.52,-0.24,-46.31,-29.88,-9.81,Medium,-0.08,0.68,-0.71,0.16,
20190207151449794,2,1389052,0.29,-8.62,3.31,-0.18,-0.15,0.23,-6.63,48.00,36.75,High,-0.27,0.18,-0.22,0.92,
20190207151449794,3,1389063,1.10,7.98,-6.70,0.09,0.72,-0.02,18.38,-45.88,-20.31,Medium,0.84,0.03,-0.03,0.55,
20190207151449794,4,1389080,-8.81,-1.99,3.10,-0.02,-0.01,0.05,47.44,15.56,43.56,Low,-0.21,0.53,0.09,0.82,
20190207151449824,1,1389113,-3.62,-9.75,1.43,0.41,0.03,-0.35,-46.31,-29.88,-9.81,Medium,-0.08,0.68,-0.71,0.16,
20190207151449858,2,1389131,0.29,-8.62,3.31,-0.05,-0.11,0.19,-6.63,48.00,36.75,High,-0.27,0.18,-0.22,0.92,
20190207151449891,3,1389169,1.29,8.10,-5.62,0.09,0.72,-0.02,18.38,-45.88,-20.31,Medium,0.84,0.03,-0.03,0.55,
20190207151449925,4,1389201,-8.81,-1.99,3.10,-0.01,0.04,-0.01,47.44,15.56,43.56,Low,-0.21,0.53,0.09,0.82,
20190207151449960,1,1389220,-3.62,-9.75,1.43,-0.12,0.07,-0.08,-46.31,-29.88,-9.81,Medium,-0.08,0.68,-0.71,0.16,
20190207151449991,2,1389252,0.29,-8.62,3.31,0.03,-0.12,0.11,-6.63,48.00,36.75,High,-0.27,0.18,-0.22,0.92,
20190207151449991,3,1389263,2.36,7.83,-5.09,0.09,0.72,-0.02,18.38,-45.88,-20.31,Medium,0.84,0.03,-0.03,0.55,
20190207151449991,4,1389280,-8.81,-1.99,3.10,-0.02,0.03,0.02,47.44,15.56,43.56,Low,-0.21,0.53,0.09,0.82,
20190207151449029,1,1389312,-3.62,-9.75,1.43,0.12,-0.09,0.03,-46.31,-29.88,-9.81,Medium,-0.08,0.68,-0.71,0.16,
20190207151449058,2,1389330,-0.66,-8.66,4.88,0.03,-0.12,0.11,-6.63,48.00,36.75,High,-0.27,0.18,-0.22,0.92,
20190207151449090,3,1389367,2.13,8.02,-5.05,0.09,0.72,-0.02,18.38,-45.88,-20.31,Medium,0.84,0.03,-0.03,0.55,
20190207151449125,4,1389399,-8.81,-1.99,3.10,-0.03,0.03,-0.01,47.44,15.56,43.56,Low,-0.21,0.53,0.09,0.82,
20190207151449158,1,1389417,-2.24,-8.94,1.82,0.12,-0.09,0.03,-46.31,-29.88,-9.81,Medium,-0.08,0.68,-0.71,0.16,
20190207151449191,2,1389450,-0.66,-8.66,4.88,-0.09,-0.05,-0.09,-6.63,48.00,36.75,High,-0.27,0.18,-0.22,0.92,
20190207151449191,3,1389461,2.29,8.10,-4.97,0.09,0.72,-0.02,18.38,-45.88,-20.31,Medium,0.84,0.03,-0.03,0.55,
20190207151449191,4,1389478,-8.81,-1.99,3.10,-0.01,0.05,-0.00,47.44,15.56,43.56,Low,-0.21,0.53,0.09,0.82,
20190207151449225,1,1389512,-2.24,-8.59,1.09,0.12,-0.09,0.03,-46.31,-29.88,-9.81,Medium,-0.08,0.68,-0.71,0.16,
20190207151449258,2,1389530,-0.63,-8.31,4.88,-0.09,-0.05,-0.09,-6.63,48.00,36.75,High,-0.27,0.18,-0.22,0.92,
20190207151449293,3,1389569,2.48,7.98,-4.86,0.09,0.72,-0.02,18.38,-45.88,-20.31,Medium,0.84,0.03,-0.03,0.55,
20190207151450324,4,1389601,-8.81,-1.99,3.10,0.01,0.02,-0.02,47.44,15.56,43.56,Low,-0.21,0.53,0.09,0.82,
20190207151450359,1,1389619,-1.32,-8.18,2.70,0.12,-0.09,0.03,-46.31,-29.88,-9.81,Medium,-0.08,0.68,-0.71,0.16,
20190207151450359,2,1389651,-0.63,-8.31,4.88,-0.01,-0.10,0.03,-6.63,48.00,36.75,High,-0.27,0.18,-0.22,0.92,
20190207151450395,3,1389664,2.44,8.18,-4.97,0.09,0.72,-0.02,18.38,-45.88,-20.31,Medium,0.84,0.03,-0.03,0.55,
20190207151450395,4,1389681,-8.96,-1.80,3.18,0.01,0.02,-0.02,47.44,15.56,43.56,Low,-0.21,0.53,0.09,0.82,
20190207151450428,1,1389714,-1.32,-8.18,2.70,-1.14,0.33,0.20,-46.31,-29.88,-9.81,Medium,-0.08,0.68,-0.71,0.16,
20190207151450461,2,1389732,-0.82,-8.46,4.46,-0.01,-0.10,0.03,-6.63,48.00,36.75,High,-0.27,0.18,-0.22,0.92,
20190207151450493,3,1389770,2.17,8.14,-5.09,0.09,0.72,-0.02,18.38,-45.88,-20.31,Medium,0.84,0.03,-0.03,0.55,
20190207151450524,4,1389802,-8.96,-1.80,3.18,-0.00,-0.02,0.00,47.44,15.56,43.56,Low,-0.21,0.53,0.09,0.82,
20190207151450560,1,1389819,-3.31,-10.66,0.97,-1.14,0.33,0.20,-46.31,-29.88,-9.81,Medium,-0.08,0.68,-0.71,0.16,
20190207151450591,2,1389853,-0.82,-8.46,4.46,-0.03,0.04,-0.02,-6.63,48.00,36.75,High,-0.27,0.18,-0.22,0.92,
